"Time (s)","Gyroscope x (rad/s)","Gyroscope y (rad/s)","Gyroscope z (rad/s)","Absolute (rad/s)"
4.940291667E-2,1.236296492E-3,-4.407996312E-5,1.405266230E-3,1.872203310E-3
5.945191667E-2,-2.657263540E-4,1.149548218E-3,-3.526863002E-4,1.231445990E-3
6.950091667E-2,1.538032666E-3,-5.700546317E-4,8.567003533E-5,1.642512137E-3
7.954991667E-2,-1.699572313E-3,-5.730427802E-6,6.566517986E-4,1.822023729E-3
8.959891667E-2,-1.207313035E-4,8.688862436E-4,1.593518537E-4,8.915897965E-4
9.964791667E-2,-1.520194695E-3,1.038378105E-4,1.833939925E-3,2.384346839E-3
1.096969167E-1,-1.092224615E-3,1.362980343E-3,-8.326831739E-4,1.934949946E-3
1.197459167E-1,-7.922877558E-4,8.233054541E-4,3.251885646E-4,1.187981212E-3
1.297949167E-1,-8.101309650E-4,-1.189778093E-3,-3.869406937E-4,1.490505683E-3
1.398439167E-1,1.859307289E-3,-9.525879286E-4,5.170378136E-4,2.152156002E-3
1.498929167E-1,-1.393743907E-3,6.692772731E-4,-2.588208066E-3,3.014842474E-3
1.599409167E-1,-1.093980507E-3,2.155162860E-3,1.514775446E-3,2.852378823E-3
1.699899167E-1,-1.180000603E-3,-7.657920942E-4,-1.893812441E-4,1.419402765E-3
1.800389167E-1,-2.902613021E-3,5.143084563E-4,-5.424779374E-5,2.948324671E-3
1.900879167E-1,-1.043193974E-3,-1.978208311E-4,5.630729138E-4,1.201847683E-3
2.001369167E-1,1.592730987E-3,-4.652906209E-4,-1.722398214E-3,2.391640225E-3
2.101859167E-1,1.386602409E-3,-2.634227276E-4,-1.163666951E-3,1.829256283E-3
2.202349167E-1,2.120834251E-4,-1.117913518E-3,9.799820837E-4,1.501690680E-3
2.302839167E-1,9.657579940E-4,-2.758953255E-3,1.438844716E-3,3.258034021E-3
2.403329167E-1,1.125482842E-3,-5.468139425E-4,7.451621932E-4,1.456359780E-3
2.503819167E-1,4.530471051E-5,-1.115132589E-3,-2.289342228E-5,1.116287291E-3
2.604309167E-1,-4.246350727E-4,-1.643610653E-3,7.722084410E-4,1.864960267E-3
2.704799167E-1,1.955165761E-3,-2.983180806E-3,5.788628478E-4,3.613464137E-3
2.805289167E-1,-3.272498725E-4,1.059477217E-3,1.227578614E-4,1.115640599E-3
2.905779167E-1,9.396158275E-4,-2.063079271E-3,-1.798712881E-3,2.893880097E-3
3.006269167E-1,-1.803108957E-3,2.052452415E-3,6.393402000E-4,2.805800905E-3
3.106759167E-1,3.380734008E-3,-2.381710801E-3,-1.974249899E-4,4.140155239E-3
3.207249167E-1,1.259756740E-3,4.701977596E-4,-5.196026759E-4,1.441547751E-3
3.307739167E-1,2.205913042E-4,-1.033423003E-3,-3.810314229E-5,1.057390881E-3
3.408229167E-1,-1.155089820E-3,-1.828485169E-3,1.294690650E-3,2.520677366E-3
3.508719167E-1,-3.470868105E-4,1.030418091E-3,-4.133034963E-6,1.087312180E-3
3.609209167E-1,-2.144965343E-3,-2.769241808E-3,1.034742454E-3,3.652433225E-3
3.709689167E-1,5.791821168E-4,-6.554909050E-4,2.419852419E-3,2.573092688E-3
3.810179167E-1,2.665783511E-3,-3.711535363E-3,-8.036376676E-5,4.570377973E-3
3.910669167E-1,2.841186651E-4,-2.651331015E-3,6.815666566E-4,2.752237758E-3
4.011159167E-1,-2.186668804E-3,-9.235125035E-4,6.452700472E-4,2.459831140E-3
4.111649167E-1,4.192341585E-4,-7.917638868E-6,-4.149343586E-4,5.899071881E-4
4.212139167E-1,-2.404709812E-3,-4.022442736E-4,1.098220353E-3,2.674045190E-3
4.312629167E-1,4.486579564E-5,1.248916145E-3,-4.046014510E-4,1.313585480E-3
4.413119167E-1,-1.853466092E-4,-1.844954677E-4,-1.349124010E-3,1.374237074E-3
4.513609167E-1,-3.080469090E-3,-1.356819179E-3,-3.664209973E-3,4.975608790E-3
4.614099167E-1,-1.939923503E-3,-1.440360211E-4,4.992913455E-5,1.945904029E-3
4.714589167E-1,1.887039049E-3,-2.461784985E-3,-6.123990752E-4,3.161698011E-3
4.815079167E-1,-1.329224324E-3,-9.407824837E-4,2.957504243E-3,3.376202057E-3
4.915569167E-1,1.356573659E-3,-1.584734768E-3,3.633188899E-4,2.117469478E-3
5.016059167E-1,-1.755855861E-3,-1.052429434E-3,-3.093786363E-4,2.070350854E-3
5.116549167E-1,-3.199555445E-3,-4.273853265E-4,4.322390305E-5,3.228262934E-3
5.217039167E-1,4.132024769E-4,1.684481278E-3,6.345402799E-4,1.846849975E-3
5.317529167E-1,-8.470052853E-4,-1.065232791E-3,-7.359223673E-4,1.547165338E-3
5.418019167E-1,6.484674523E-4,-1.387850381E-3,-1.680131303E-3,2.273649030E-3
5.518509167E-1,-1.323336968E-3,-8.618761785E-4,-1.730731223E-3,2.342964328E-3
5.618999167E-1,-6.919662119E-4,-3.671126207E-3,-2.677860030E-4,3.745356353E-3
5.719489167E-1,1.080101123E-3,-1.604513265E-3,-1.191902906E-3,2.271940534E-3
5.819979167E-1,-2.062488056E-4,3.616889007E-4,-3.172448371E-3,3.199654059E-3
5.920459167E-1,9.607484099E-4,-3.076452296E-3,3.125641379E-4,3.238100150E-3
6.020949167E-1,7.704402669E-4,1.191420946E-3,8.035327191E-4,1.630560305E-3
6.121439167E-1,-4.945612163E-4,7.618530653E-4,-5.384341348E-4,1.055898768E-3
6.221929167E-1,-7.499291096E-4,-5.273045972E-4,1.822718536E-3,2.040281027E-3
6.322419167E-1,-2.516517125E-4,5.398239009E-4,-1.049234299E-3,1.206495355E-3
6.422909167E-1,-2.087391913E-4,2.152705099E-3,-1.360090217E-3,2.554908353E-3
6.523399167E-1,-6.705313572E-4,-6.984751672E-4,1.123715192E-4,9.747344348E-4
6.623889167E-1,2.803252428E-4,-7.784781046E-4,-1.049683662E-3,1.336580036E-3
6.724379167E-1,-7.087728009E-4,-6.610327400E-4,1.407348784E-3,1.708787221E-3
6.824869167E-1,2.252293285E-3,-6.797118112E-5,3.178364714E-4,2.275624122E-3
6.925359167E-1,-2.255639527E-3,-1.444155350E-5,1.312260865E-3,2.609625799E-3
7.025849167E-1,-1.506587374E-3,2.142034937E-3,1.245266641E-3,2.899794509E-3
7.126339167E-1,-6.013789680E-4,2.300759312E-3,-7.371904794E-4,2.489698752E-3
7.226829167E-1,-1.740589156E-3,-3.009554930E-4,-1.443024958E-3,2.280908996E-3
7.327319167E-1,1.555339084E-3,1.541785896E-4,5.024141865E-4,1.641727967E-3
7.427809167E-1,-1.914054155E-5,-1.663552132E-3,-2.528881188E-3,3.027046765E-3
7.528299167E-1,1.336142188E-3,-9.623416699E-4,-2.960867423E-4,1.673034607E-3
7.628789167E-1,-6.112112897E-5,-6.535500288E-4,5.773724988E-4,8.741981669E-4
7.729279167E-1,1.493365970E-3,-6.383704022E-4,-1.931058941E-3,2.523221616E-3
7.829769167E-1,2.684096398E-4,1.200807746E-3,1.974050538E-4,1.246174841E-3
7.930259167E-1,-1.200856408E-3,-1.246104948E-3,4.914180608E-4,1.798978979E-3
8.030749167E-1,-1.433935249E-3,4.859329201E-4,9.504675400E-4,1.787649196E-3
8.131239167E-1,-6.264648400E-4,3.104303032E-4,8.641810855E-4,1.111590805E-3
8.231729167E-1,7.069758722E-4,1.624286640E-3,1.040544477E-3,2.054471899E-3
8.332219167E-1,1.877967734E-3,1.308435574E-3,1.501803985E-3,2.737550305E-3
8.432699167E-1,-8.070949116E-5,-1.602458768E-3,1.784573309E-3,2.399810413E-3
8.533189167E-1,1.429835567E-3,-5.094972439E-4,-3.862689482E-5,1.518390341E-3
8.633679167E-1,1.341694850E-3,2.982403152E-3,7.673364016E-4,3.359118751E-3
8.734169167E-1,1.608492748E-4,-5.276431330E-4,1.990178134E-4,5.864195214E-4
8.834659167E-1,3.172183642E-5,-6.290902384E-4,-4.048573319E-4,7.487791811E-4
8.935149167E-1,8.343985537E-4,-7.563889958E-4,5.030143075E-4,1.233437738E-3
9.035639167E-1,-6.629413110E-4,4.007136449E-4,3.129389137E-3,3.223839168E-3
9.136129167E-1,2.502566495E-4,8.459668607E-5,7.477239706E-4,7.930171032E-4
9.236619167E-1,6.150602712E-5,1.923740841E-3,6.012448575E-4,2.016446676E-3
9.337109167E-1,-7.931023138E-4,-1.584707759E-3,1.251056208E-3,2.169205292E-3
9.437599167E-1,-1.374783693E-3,6.319391541E-4,-6.325225113E-4,1.639957934E-3
9.538089167E-1,2.699319972E-3,2.577649429E-4,1.700672787E-3,3.200790372E-3
9.638579167E-1,1.762520988E-3,3.295019269E-6,-4.402642953E-4,1.816679316E-3
9.739069167E-1,-3.326246981E-3,-5.786055699E-4,6.407127948E-4,3.436454025E-3
9.839559167E-1,-2.009062795E-3,-1.430131495E-3,-4.603790585E-4,2.508696531E-3
9.940049167E-1,-2.492459607E-4,-6.871097721E-4,3.209989518E-3,3.292153717E-3
1.004053750E0,1.236189855E-3,-9.885290638E-5,7.291735383E-4,1.438621321E-3
1.014102750E0,-1.204064582E-3,-5.073817447E-4,-1.040763222E-3,1.670447795E-3
1.024151750E0,-1.517759520E-4,5.683209747E-5,1.852379530E-3,1.859455767E-3
1.034200750E0,3.465014743E-4,-5.146819167E-4,2.448955202E-4,6.670341542E-4
1.044249750E0,-2.252105158E-3,-1.966836862E-4,6.079101586E-4,2.340986304E-3
1.054298750E0,-2.542015573E-4,2.343971748E-3,-3.039562143E-4,2.377227664E-3
1.064347750E0,-1.388539560E-3,5.741482601E-4,1.191912103E-3,1.917900622E-3
1.074396750E0,-2.184292069E-3,1.895879395E-4,7.519578794E-4,2.317868866E-3
1.084445750E0,1.882631099E-3,-1.156940125E-4,-1.737070153E-3,2.564195327E-3
1.094494750E0,-6.660140352E-4,-5.489904433E-4,6.477904972E-4,1.079165293E-3
1.104543750E0,-3.184813831E-4,-6.451192312E-4,4.630582407E-5,7.209392784E-4
1.114592750E0,3.169488336E-4,3.172521945E-3,-7.102981908E-4,3.266477549E-3
1.124640750E0,-1.464657718E-3,7.870588452E-4,7.770722732E-5,1.664548669E-3
1.134689750E0,-1.820793550E-4,7.529701106E-4,3.091340419E-3,3.186926806E-3
1.144738750E0,1.072746469E-3,-4.302356392E-4,7.557115750E-4,1.380937246E-3
1.154787750E0,4.106846172E-4,-5.551381037E-4,1.413778635E-3,1.573407194E-3
1.164836750E0,-1.348452060E-4,-1.731669996E-3,-9.952908149E-4,2.001866132E-3
1.174885750E0,-1.172412653E-3,5.432022735E-4,3.021288663E-3,3.286001419E-3
1.184934750E0,-1.434125006E-3,3.316965885E-4,-7.926128455E-5,1.474116519E-3
1.194983750E0,1.757673686E-3,2.985003404E-3,-5.032365443E-4,3.500415565E-3
1.205032750E0,-1.200853381E-3,-3.154814942E-3,6.396760582E-4,3.435708314E-3
1.215081750E0,2.078563208E-3,3.749388270E-4,1.924118726E-3,2.857137904E-3
1.225130750E0,2.397965727E-4,9.095016867E-4,-4.915025202E-4,1.061258895E-3
1.235179750E0,-1.012954395E-3,-1.794938464E-3,1.206795219E-3,2.388354119E-3
1.245228750E0,-2.425990766E-3,1.885889564E-3,-1.269602682E-3,3.324740834E-3
1.255277750E0,2.661988256E-4,-3.406344447E-3,3.356041620E-3,4.789265044E-3
1.265326750E0,-2.511030179E-4,-1.430131495E-3,-7.815935533E-4,1.649004943E-3
1.275375750E0,-1.970706042E-3,1.540624537E-3,-1.871760178E-4,2.508433999E-3
1.285424750E0,-1.576845534E-4,4.533524625E-4,2.433970221E-4,5.381774652E-4
1.295473750E0,1.491611125E-3,1.849061809E-4,6.636438193E-4,1.643020743E-3
1.305522750E0,9.986904915E-4,-1.549612731E-3,-1.928646816E-3,2.668025647E-3
1.315571750E0,-2.942742431E-4,-1.489691436E-3,-9.936110582E-4,1.814673756E-3
1.325620750E0,9.636493633E-5,1.573069021E-3,1.121987822E-3,1.934603065E-3
1.335669750E0,1.232628711E-4,-8.243080229E-4,-8.932261262E-4,1.221691600E-3
1.345718750E0,8.552640793E-4,-1.978194341E-3,8.783262456E-5,2.156952495E-3
1.355767750E0,1.873656875E-3,-1.425854862E-3,1.683598734E-3,2.894504598E-3
1.365816750E0,-4.481236683E-4,9.616413154E-4,1.741503947E-4,1.075126598E-3
1.375865750E0,-5.708954413E-4,-4.487689584E-4,2.433925983E-4,7.658688791E-4
1.385914750E0,-8.234205889E-4,-1.459614374E-3,-2.911327407E-3,3.359214619E-3
1.395963750E0,1.856511226E-4,-5.000773817E-4,1.906064805E-3,1.979299565E-3
1.406012750E0,-1.988011179E-3,7.939497009E-4,6.313902559E-4,2.231859815E-3
1.416060750E0,-1.878821757E-3,-3.352304921E-4,-3.760835971E-4,1.945196532E-3
1.426109750E0,-1.634231012E-4,-6.625615060E-4,9.688185528E-4,1.185033437E-3
1.436158750E0,2.504321164E-4,7.047052495E-4,-6.743518170E-4,1.007013459E-3
1.446207750E0,-9.884138126E-4,-7.406114601E-4,2.854405320E-4,1.267652751E-3
1.456256750E0,1.732005272E-3,-2.407750580E-3,-2.820790978E-4,2.979374723E-3
1.466305750E0,7.269961061E-4,5.997107364E-4,6.666146219E-4,1.154361884E-3
1.476354750E0,1.576278242E-3,-1.123354305E-3,-1.229822403E-3,2.293259936E-3
1.486403750E0,1.317280112E-4,2.480955329E-3,-2.741772041E-4,2.499532907E-3
1.496452750E0,-9.543090709E-4,9.929062799E-5,-3.955198452E-3,4.069908995E-3
1.506501750E0,-2.542541188E-4,-1.421302091E-3,-1.951479935E-3,2.427554063E-3
1.516550750E0,9.489620570E-4,-1.265240833E-3,-7.053868030E-4,1.731743022E-3
1.526599750E0,-9.986683726E-4,-7.479642518E-4,1.878086478E-4,1.261769047E-3
1.536648750E0,-5.174351390E-4,-3.586099483E-4,4.373468691E-4,7.665588706E-4
1.546697750E0,4.219504190E-4,-2.256807871E-3,2.380569698E-3,3.307315530E-3
1.556746750E0,2.656228608E-4,6.937081926E-4,1.371764345E-3,1.559975634E-3
1.566795750E0,-6.898242282E-4,3.391187638E-4,7.882756181E-4,1.101016554E-3
1.576844750E0,-1.029377221E-3,1.902661286E-3,-1.487129135E-3,2.625126758E-3
1.586893750E0,-1.185706817E-3,-1.602142584E-3,1.012278721E-3,2.235502118E-3
1.596942750E0,2.159489784E-3,-6.336811930E-5,3.747178707E-4,2.192675336E-3
1.606991750E0,-3.081047907E-5,1.238359604E-3,-3.340572584E-4,1.282995731E-3
1.617040750E0,-1.721651410E-3,2.652406693E-4,5.236739526E-5,1.742750279E-3
1.627089750E0,-9.928640211E-4,5.906959996E-4,-6.168972468E-4,1.309680473E-3
1.637138750E0,6.034346879E-4,1.677861437E-4,2.872459590E-4,6.890543183E-4
1.647187750E0,-6.655255565E-4,-1.215460710E-3,2.236013766E-3,2.630594337E-3
1.657236750E0,1.627175225E-4,-5.470071919E-4,5.803264212E-4,8.139242073E-4
1.667285750E0,-2.828208962E-4,1.422096044E-3,2.834538464E-3,3.183858213E-3
1.677334750E0,-1.512668678E-3,-8.466509171E-4,-1.177780097E-3,2.095745753E-3
1.687383750E0,1.658172230E-3,1.305909362E-3,-6.867023767E-4,2.219570805E-3
1.697432750E0,1.155633712E-3,1.089128200E-3,5.019427044E-5,1.588775937E-3
1.707481750E0,8.203274338E-4,1.658196561E-4,-7.909358828E-4,1.151526304E-3
1.717530750E0,-1.051210274E-4,-4.648170434E-4,-6.102316547E-6,4.765947466E-4
1.727579750E0,-4.353875993E-4,-1.440958120E-3,2.791475272E-3,3.171475502E-3
1.737627750E0,-2.260631300E-4,-1.403141301E-3,1.682002563E-3,2.202054194E-3
1.747676750E0,-1.096621156E-3,-2.631562296E-3,1.849241788E-3,3.398145563E-3
1.757725750E0,-1.232708804E-3,3.402591683E-4,3.618663177E-4,1.329020139E-3
1.767774750E0,6.353270728E-4,-2.423594706E-4,8.814444300E-6,6.800413935E-4
1.777823750E0,-1.121027628E-3,-1.417878550E-3,8.519712137E-4,1.998233588E-3
1.787872750E0,-1.395693631E-3,-5.306513049E-4,1.181960572E-3,1.904358766E-3
1.797921750E0,-1.503285253E-3,-1.335740089E-4,5.611777888E-4,1.610164302E-3
1.807970750E0,1.325309742E-3,-3.851591609E-4,-1.370842219E-4,1.386933876E-3
1.818019750E0,6.195721216E-4,-1.003012527E-3,-2.068941249E-3,2.381264713E-3
1.828068750E0,-1.146245166E-3,4.493650049E-4,-5.188790383E-4,1.336054768E-3
1.838117750E0,-6.628814153E-4,-7.144361734E-4,1.514444361E-3,1.800936572E-3
1.848166750E0,1.796536526E-4,1.241766382E-3,7.874150760E-4,1.481310799E-3
1.858215750E0,-8.017211221E-4,4.750424996E-4,-1.899714465E-3,2.115971924E-3
1.868264750E0,1.079931622E-3,-2.818740904E-4,2.564722672E-3,2.797053395E-3
1.878313750E0,-2.159625292E-4,-5.404669791E-4,-1.308845123E-3,1.432417511E-3
1.888362750E0,-3.775072051E-3,6.833015941E-4,4.309471697E-4,3.860542128E-3
1.898411750E0,8.944110596E-5,1.461422071E-4,5.342778750E-4,5.610794095E-4
1.908460750E0,-7.547360728E-4,5.079666153E-4,3.712265752E-4,9.825811885E-4
1.918509750E0,-1.089194848E-4,-2.235355787E-3,-2.074087970E-3,3.051314447E-3
1.928558750E0,-8.316281601E-4,1.518458594E-3,5.249009700E-5,1.732073066E-3
1.938607750E0,1.151894219E-3,9.890645742E-7,-1.581659308E-4,1.162702770E-3
1.948656750E0,5.552265211E-4,1.913120970E-3,2.070645569E-4,2.002794065E-3
1.958705750E0,-8.317478350E-4,1.569573302E-3,8.054767968E-4,1.950425000E-3
1.968754750E0,1.245373045E-3,7.354053669E-4,1.054893597E-3,1.790132838E-3
1.978803750E0,-5.477333325E-4,7.737549022E-4,3.054800327E-4,9.960052724E-4
1.988852750E0,-2.044326859E-3,1.789501403E-3,-1.821340644E-3,3.270912612E-3
1.998901750E0,-8.046254516E-4,1.379108056E-3,2.754769055E-3,3.184040467E-3
2.008950375E0,-1.903393306E-3,1.090932637E-4,-3.187444527E-4,1.932978387E-3
2.018999375E0,-8.027088479E-4,6.632967852E-4,-3.182118235E-4,1.088835564E-3
2.029048375E0,6.239662180E-4,1.630634069E-4,6.736202631E-4,9.325705200E-4
2.039097375E0,-3.829749476E-4,1.287087798E-4,-5.555321695E-5,4.078258457E-4
2.049146375E0,1.533784438E-3,4.751454107E-4,5.506805610E-5,1.606639460E-3
2.059195375E0,-9.952636901E-7,1.628027763E-3,-1.184100751E-3,2.013099594E-3
2.069243375E0,1.724853762E-3,-1.919996459E-3,5.618901923E-5,2.581601075E-3
2.079292375E0,-8.472271729E-4,1.044101547E-3,-1.246096799E-3,1.833220979E-3
2.089341375E0,-1.418292755E-3,-2.385717817E-4,1.966082258E-3,2.435970090E-3
2.099390375E0,-7.671498461E-4,-1.524345949E-3,-8.294378640E-4,1.897397330E-3
2.109439375E0,1.982531277E-3,-1.044629142E-3,4.426444648E-4,2.284209805E-3
2.119488375E0,-1.881449018E-3,6.550005637E-4,-2.895095386E-3,3.514321191E-3
2.129537375E0,-2.248876495E-3,7.470836863E-4,1.453641453E-3,2.780045503E-3
2.139586375E0,7.623598212E-4,-2.771681175E-4,4.056817852E-5,8.121948285E-4
2.149635375E0,1.818628283E-3,-5.364418030E-6,2.194747794E-4,1.831831539E-3
2.159684375E0,-1.345340570E-4,-1.229353249E-3,1.272222260E-3,1.774248659E-3
2.169733375E0,-8.729854599E-4,-6.837556139E-4,7.649621111E-4,1.347142303E-3
2.179782375E0,6.633921294E-4,1.520808786E-3,-2.110864152E-4,1.672574649E-3
2.189831375E0,2.413113369E-3,-1.113518607E-3,1.498384867E-3,3.050933796E-3
2.199880375E0,1.730545191E-3,-6.882119924E-4,1.564164879E-3,2.432084327E-3
2.209929375E0,-8.790845750E-4,-5.671740510E-4,2.910510171E-3,3.092821616E-3
2.219978375E0,5.172107485E-4,2.288445830E-4,-3.744992136E-4,6.783262214E-4
2.230027375E0,-5.094931112E-4,-8.305814117E-5,1.364163123E-3,1.458568789E-3
2.240076375E0,-1.284472994E-3,2.489288803E-3,9.804017609E-4,2.967763001E-3
2.250125375E0,-6.045207847E-4,7.107392885E-4,-6.496140268E-4,1.136923084E-3
2.260174375E0,-1.114249812E-3,5.930275656E-4,1.954424893E-3,2.326587845E-3
2.270223375E0,7.861006889E-4,-1.273230650E-3,-1.052264008E-3,1.829297713E-3
2.280272375E0,1.165068476E-3,1.209345646E-4,2.185964840E-4,1.191551151E-3
2.290321375E0,3.166907118E-5,-2.059666440E-4,-1.068587531E-3,1.088716906E-3
2.300370375E0,-2.029351424E-3,1.430013217E-3,5.745828385E-4,2.548205338E-3
2.310419375E0,-5.475634243E-4,1.884811092E-3,-2.052718308E-3,2.840068839E-3
2.320468375E0,1.989206357E-4,5.143485032E-4,1.097683562E-4,5.622925343E-4
2.330517375E0,-1.812574046E-4,1.544732600E-3,-2.081640996E-3,2.598515401E-3
2.340566375E0,-9.759446839E-4,-1.764683984E-4,2.336809412E-3,2.538560093E-3
2.350615375E0,4.994547344E-4,1.106830779E-3,4.593783524E-5,1.215170643E-3
2.360664375E0,-6.947066286E-4,-3.070412204E-4,2.802960225E-4,8.096032800E-4
2.370713375E0,-7.313634851E-4,-2.167859115E-3,5.723108770E-4,2.358398912E-3
2.380762375E0,-4.666473251E-5,1.654841937E-3,-1.108143828E-3,1.992150139E-3
2.390811375E0,7.118472131E-4,-2.018049359E-3,2.927464433E-3,3.626196034E-3
2.400860375E0,-1.693519880E-3,2.299249172E-4,-2.624734771E-5,1.709258311E-3
2.410909375E0,-8.845981793E-4,1.565078739E-3,-1.044405159E-3,2.079126628E-3
2.420958375E0,6.128973328E-4,3.078007139E-4,2.181995660E-4,7.197190220E-4
2.431007375E0,-2.230803482E-3,6.674360484E-4,-1.075144624E-3,2.564739951E-3
2.441055375E0,1.000409946E-3,1.993689686E-3,-1.943601412E-3,2.958581598E-3
2.451104375E0,-1.981357054E-4,4.733940586E-4,6.197846960E-5,5.169149091E-4
2.461153375E0,1.346231438E-3,1.385793090E-3,5.778328050E-4,2.016594239E-3
2.471202375E0,1.239955891E-3,-2.087312751E-4,3.375860979E-4,1.301930770E-3
2.481251375E0,-5.622051540E-4,7.516047917E-4,-9.604386287E-4,1.342917256E-3
2.491300375E0,7.374857087E-4,1.383511815E-3,1.720144646E-3,2.327420829E-3
2.501349375E0,-6.111391122E-4,3.462103195E-4,2.045395086E-4,7.315661353E-4
2.511398375E0,-7.831257535E-4,1.323702745E-4,9.907477070E-4,1.269798746E-3
2.521447375E0,-1.373814768E-3,-1.304671634E-3,9.009991190E-4,2.097935772E-3
2.531496375E0,-2.224086784E-3,1.560967881E-3,-3.784121654E-4,2.743424596E-3
2.541545375E0,-1.537453791E-4,4.538916983E-4,-1.698274747E-3,1.764594127E-3
2.551594375E0,6.352080964E-4,1.717347652E-3,-1.064057695E-3,2.117779748E-3
2.561643375E0,-3.451014927E-4,-4.195729271E-4,3.045199905E-3,3.093279641E-3
2.571692375E0,9.632302099E-4,8.752858266E-4,1.353749074E-3,1.877917536E-3
2.581741375E0,1.355247572E-3,-3.862534650E-4,1.937513938E-3,2.395797984E-3
2.591790375E0,-5.351121072E-4,-1.489842311E-3,-5.050111213E-4,1.661629113E-3
2.601839375E0,-2.773498883E-3,1.638572663E-3,1.047345460E-3,3.387351317E-3
2.611888375E0,-1.822139136E-3,7.211402990E-4,-2.782176307E-4,1.979302759E-3
2.621937375E0,4.226393066E-4,1.430606470E-3,1.662427792E-3,2.233590164E-3
2.631986375E0,-2.778288617E-4,-1.547700725E-3,-1.676231972E-3,2.298329836E-3
2.642035375E0,-3.854206007E-4,-1.966790296E-4,-7.540587103E-5,4.392240038E-4
2.652084375E0,1.568292500E-4,-1.697049942E-3,5.135067040E-4,1.779961532E-3
2.662133375E0,-5.843284307E-4,-1.603040379E-3,9.284272091E-4,1.942461133E-3
2.672182375E0,-1.224482665E-3,2.324853558E-3,-1.454760786E-3,3.003436500E-3
2.682231375E0,-3.844500519E-3,-1.329536084E-3,8.920167456E-4,4.164558118E-3
2.692280375E0,-5.923127756E-4,3.499453887E-4,-3.344630240E-4,7.649586352E-4
2.702329375E0,-3.193388111E-4,-2.849008888E-5,1.284206286E-3,1.323621829E-3
2.712378375E0,1.554788789E-3,-6.416551769E-4,-1.501344377E-4,1.688676965E-3
2.722427375E0,2.087421017E-3,-3.264869098E-3,-7.445520023E-4,3.946017538E-3
2.732476375E0,9.484470938E-4,2.257553861E-4,-1.740348293E-3,1.994825697E-3
2.742525375E0,-3.423870658E-4,2.388775349E-3,2.021100372E-3,3.147748923E-3
2.752574375E0,2.418537624E-3,5.614110269E-4,-1.554642222E-4,2.487704907E-3
2.762623375E0,1.713865087E-3,-1.190949231E-3,-6.225826801E-4,2.177912487E-3
2.772672375E0,1.916305861E-3,1.890389714E-3,-8.200336015E-5,2.693051424E-3
2.782721375E0,1.125879586E-3,1.248567365E-3,2.817113884E-3,3.280648707E-3
2.792770375E0,3.193438984E-3,-3.480645828E-4,-5.119955167E-4,3.252897310E-3
2.802819375E0,-6.737370277E-4,-1.045546494E-3,-1.231315313E-3,1.750207546E-3
2.812868375E0,-4.376535071E-4,-1.552442554E-3,1.444331720E-3,2.165112605E-3
2.822917375E0,-1.983618597E-3,3.208247945E-4,-5.828664871E-4,2.092224803E-3
2.832966375E0,-2.937031095E-4,4.464043304E-4,-1.290490618E-3,1.396747786E-3
2.843014375E0,-4.574875347E-4,3.207032569E-4,1.482126419E-3,1.583933126E-3
2.853063375E0,9.159019683E-4,9.329649620E-4,-2.367850859E-3,2.704813806E-3
2.863112375E0,-8.798675262E-4,1.446422189E-3,6.279390655E-4,1.805716335E-3
2.873161375E0,8.845670382E-4,1.179710496E-3,6.238025962E-4,1.601032598E-3
2.883210375E0,1.281910692E-3,1.479582395E-3,6.070247036E-4,2.049619008E-3
2.893259375E0,-6.643825909E-4,-1.044441015E-4,6.275502383E-4,9.198543901E-4
2.903308375E0,7.803822518E-4,1.279067714E-3,-6.750018219E-4,1.643361839E-3
2.913357375E0,1.375950233E-4,-1.057154033E-3,-2.036881400E-3,2.298998234E-3
2.923406375E0,1.711256802E-3,1.140752807E-3,-1.204708242E-4,2.060152914E-3
2.933455375E0,6.374782533E-4,-1.780376770E-3,-8.065775619E-4,2.055890884E-3
2.943504375E0,2.625794150E-3,-4.466660321E-4,8.328643744E-4,2.790693199E-3
2.953553375E0,-8.880717796E-4,1.440381631E-3,-2.858838066E-3,3.322096600E-3
2.963602375E0,-4.289428471E-4,-1.623085700E-4,-5.745905219E-5,4.622094554E-4
2.973651375E0,-1.492550829E-3,-1.505226828E-4,4.120176891E-5,1.500687390E-3
2.983700375E0,1.940530026E-3,9.919730946E-4,1.656142762E-3,2.737238801E-3
2.993749375E0,4.951650044E-4,9.008026682E-4,-3.855718242E-4,1.097861312E-3
3.003798125E0,9.146128432E-4,-1.271776855E-4,-1.046083635E-4,9.293189583E-4
3.013847125E0,-2.164184814E-3,-1.102834940E-4,5.232930416E-4,2.229281043E-3
3.023896125E0,-1.535146264E-3,-2.447740175E-3,1.442083740E-3,3.229196731E-3
3.033945125E0,8.352995501E-4,1.169554889E-5,2.981777070E-4,8.870017301E-4
3.043994125E0,-8.195887785E-4,3.433227539E-5,-1.258706325E-3,1.502413419E-3
3.054043125E0,-5.913788336E-4,2.161240671E-3,1.000123681E-3,2.453759878E-3
3.064092125E0,2.461031545E-5,1.241385005E-3,9.274194017E-4,1.549757770E-3
3.074141125E0,2.999818185E-3,-5.576140247E-4,1.997004729E-4,3.057731647E-3
3.084190125E0,8.253473788E-4,6.037903950E-4,1.885481412E-3,2.144947853E-3
3.094239125E0,5.902546691E-4,1.849887893E-3,-7.478569169E-4,2.080811322E-3
3.104288125E0,1.321292366E-3,1.491426490E-3,1.769895665E-3,2.665088584E-3
3.114337125E0,-8.671405958E-4,-1.592976041E-3,-2.491429914E-3,3.081676248E-3
3.124386125E0,3.385394812E-3,-1.030516345E-3,2.150992630E-3,4.141211328E-3
3.134435125E0,-7.985396078E-4,-8.886833675E-4,-2.852783655E-4,1.228335206E-3
3.144484125E0,-1.036892529E-3,5.329120904E-4,-8.035295177E-4,1.415909989E-3
3.154533125E0,2.958373399E-3,-1.584018581E-3,6.375313969E-4,3.415777264E-3
3.164582125E0,2.872228506E-4,-2.079366706E-3,9.749538731E-4,2.314475733E-3
3.174631125E0,-1.999551896E-4,-5.239848979E-4,3.965979558E-4,6.869004219E-4
3.184680125E0,-6.253609899E-5,4.209047183E-4,-1.062015304E-3,1.144092676E-3
3.194729125E0,6.310861208E-4,-3.441045992E-4,-2.057878301E-4,7.476806124E-4
3.204778125E0,-1.229398185E-3,-1.408836339E-3,1.139641041E-3,2.189753737E-3
3.214827125E0,1.084149349E-3,6.908699870E-4,-4.179624375E-5,1.286245730E-3
3.224876125E0,-2.583556110E-3,-9.187445976E-4,-2.177118789E-3,3.501242641E-3
3.234925125E0,1.762370521E-4,1.717098057E-4,-1.407218864E-3,1.428568755E-3
3.244974125E0,3.075620625E-3,-2.152164467E-3,7.107931888E-4,3.820534135E-3
3.255023125E0,5.388554418E-4,-2.374588512E-4,9.944045451E-5,5.971936848E-4
3.265072125E0,-5.855311756E-4,1.202778425E-3,-6.289341254E-4,1.478201891E-3
3.275121125E0,-6.343604764E-4,1.630117651E-3,1.170944306E-3,2.104948298E-3
3.285170125E0,9.108056547E-4,1.091626473E-3,5.733307917E-4,1.532946018E-3
3.295219125E0,1.026474754E-3,1.023944002E-3,-1.421547611E-3,2.030494854E-3
3.305268125E0,-7.021831698E-4,1.706245821E-3,4.851730773E-5,1.845722063E-3
3.315317125E0,1.774023753E-3,2.249436453E-3,-2.422355814E-3,3.751657276E-3
3.325365125E0,3.184167435E-3,-1.463276800E-3,6.293604383E-4,3.560364561E-3
3.335414125E0,2.844457282E-3,-2.701964229E-3,6.242597010E-6,3.923211299E-3
3.345463125E0,-2.519947942E-3,-1.178369857E-3,3.905367921E-4,2.809130139E-3
3.355512125E0,-1.669288380E-3,-2.599237487E-4,2.270044643E-4,1.704586483E-3
3.365561125E0,-4.682026920E-4,5.842982791E-4,1.177220372E-3,1.395158072E-3
3.375610125E0,2.745508682E-3,8.527808823E-4,-8.309319383E-4,2.992574317E-3
3.385659125E0,-8.819830837E-4,1.348661259E-3,4.452548455E-4,1.671835287E-3
3.395708125E0,-1.564746723E-3,1.676669810E-3,-2.281843452E-3,3.235191416E-3
3.405757125E0,2.193239983E-3,-1.326044090E-3,-1.183555927E-3,2.823030142E-3
3.415806125E0,9.738552035E-4,5.076332018E-4,1.849226537E-3,2.150749686E-3
3.425855125E0,-5.364234676E-4,9.832736105E-4,1.277978416E-3,1.699354572E-3
3.435904125E0,1.806417829E-3,2.254429273E-4,3.637164482E-4,1.856410392E-3
3.445953125E0,-5.595345283E-4,1.525598578E-3,-1.686917618E-3,2.342268336E-3
3.456002125E0,-2.208897844E-3,1.492486801E-3,2.427676809E-4,2.676879281E-3
3.466051125E0,-3.950188402E-4,1.008856576E-3,-6.741586840E-4,1.276056976E-3
3.476100125E0,9.093048284E-4,1.085975673E-3,5.855275085E-4,1.532651590E-3
3.486149125E0,1.724081230E-4,-8.147223853E-4,2.708333312E-3,2.833472508E-3
3.496198125E0,1.121123205E-4,2.140231431E-3,-3.242790001E-3,3.887009999E-3
3.506247125E0,2.226335055E-4,7.015606388E-5,9.567485540E-4,9.848123408E-4
3.516296125E0,-3.251364455E-3,-7.525077090E-4,9.369151667E-5,3.338624982E-3
3.526345125E0,1.741263666E-3,1.143130474E-3,-3.509032540E-3,4.080693054E-3
3.536394125E0,-8.753655129E-4,-1.083193347E-4,5.560149439E-4,1.042665084E-3
3.546443125E0,9.566230001E-4,1.571979374E-4,2.099050675E-3,2.312109965E-3
3.556492125E0,7.126723067E-4,1.126744319E-3,7.771640085E-4,1.543191003E-3
3.566541125E0,4.077403573E-4,-2.658227459E-4,-1.524606021E-3,1.600417899E-3
3.576590125E0,5.782918306E-4,5.744351074E-5,-2.231652616E-5,5.815661833E-4
3.586639125E0,1.039551338E-3,1.794165000E-4,-1.305960119E-3,1.678805854E-3
3.596688125E0,-1.731001772E-3,1.471159980E-3,1.317312475E-3,2.626021892E-3
3.606737125E0,-1.168542076E-3,-7.547098212E-4,2.629718045E-3,2.974978066E-3
3.616786125E0,7.232329808E-4,-2.412322909E-3,1.014321926E-3,2.714998477E-3
3.626835125E0,-2.504186705E-4,-7.339990698E-4,-1.426198869E-3,1.623424578E-3
3.636884125E0,1.316782786E-3,-1.027830876E-3,7.845002110E-4,1.845479286E-3
3.646933125E0,-1.296044677E-3,1.327734906E-3,-7.082016091E-4,1.985991265E-3
3.656982125E0,-6.308880402E-4,9.114807472E-5,8.293745923E-4,1.046035327E-3
3.667031125E0,9.315885836E-4,2.068012953E-3,-2.256430220E-3,3.199376845E-3
3.677080125E0,4.111848830E-4,1.974208746E-3,-6.301982794E-4,2.112752483E-3
3.687129125E0,7.739074063E-4,1.789722592E-4,-5.676139845E-4,9.762936947E-4
3.697178125E0,-1.059748465E-3,8.022468537E-4,7.782853791E-4,1.540258081E-3
3.707227125E0,-7.065045065E-5,-1.877425704E-3,-1.949057914E-3,2.707128648E-3
3.717276125E0,-1.691290876E-3,2.039294690E-3,-1.825585496E-4,2.655657222E-3
3.727325125E0,-6.776917144E-4,2.919947729E-4,-2.546380274E-3,2.651146829E-3
3.737374125E0,1.688397839E-3,-1.183652785E-3,1.719813095E-3,2.685047162E-3
3.747423125E0,1.148575102E-3,-1.299233641E-3,1.613819273E-3,2.368891189E-3
3.757472125E0,1.484166482E-3,2.656499855E-4,1.516502234E-3,2.138480555E-3
3.767521125E0,1.468187547E-3,3.910847008E-4,-7.642289856E-4,1.700755085E-3
3.777570125E0,-5.638989969E-4,3.288723528E-4,-3.697792417E-4,7.502504854E-4
3.787619125E0,-6.768170861E-4,2.288693096E-3,-1.183768036E-4,2.389604680E-3
3.797668125E0,1.117791049E-3,-7.033478469E-4,1.205987181E-3,1.788451873E-3
3.807717125E0,1.644830685E-3,7.736412808E-4,-5.016317009E-4,1.885636014E-3
3.817766125E0,8.908245945E-6,-1.622830052E-3,4.782162723E-4,1.691847374E-3
3.827815125E0,-2.471826505E-3,5.762465298E-5,-7.542946842E-4,2.584996584E-3
3.837864125E0,1.999746542E-3,-1.206677873E-3,1.695086015E-3,2.885892292E-3
3.847913125E0,8.284883806E-4,8.815065958E-4,5.200993619E-4,1.316795436E-3
3.857962125E0,1.871939050E-3,-1.121840905E-3,-1.506257104E-5,2.182409152E-3
3.868010125E0,-1.120654983E-3,-1.525043510E-3,1.072306186E-3,2.175193291E-3
3.878059125E0,2.199312439E-4,-2.265435643E-3,3.366125748E-4,2.300842548E-3
3.888108125E0,1.697985688E-3,1.396676991E-3,6.630178541E-5,2.199604042E-3
3.898157125E0,-9.552603588E-4,1.209442969E-3,-2.156221773E-3,2.650389969E-3
3.908206125E0,1.230535854E-4,1.798649319E-4,-5.529987393E-4,5.943914403E-4
3.918255125E0,-7.097359630E-4,-4.960363731E-4,2.271212172E-3,2.430675205E-3
3.928304125E0,-1.370466314E-3,7.764217444E-4,-6.840976421E-4,1.717264752E-3
3.938353125E0,-8.484480204E-4,-1.468039583E-3,1.790196169E-3,2.465726381E-3
3.948402125E0,1.728426549E-3,-4.043732770E-4,1.543321181E-3,2.352193944E-3
3.958451125E0,-1.735201455E-3,-1.636110246E-3,2.322280779E-3,3.328778882E-3
3.968500125E0,-4.627432500E-4,-3.908160143E-4,1.381386071E-3,1.508342120E-3
3.978549125E0,1.250505913E-3,-7.087644190E-4,-3.873915412E-4,1.488685409E-3
3.988598125E0,6.923073670E-4,5.969838239E-4,1.507447567E-3,1.762974005E-3
3.998647125E0,-1.666012453E-3,-1.490518916E-3,1.394962310E-3,2.634988421E-3
4.008696292E0,-1.215938362E-3,-6.052842364E-4,-1.973670209E-3,2.395881717E-3
4.018745292E0,1.546089537E-3,1.158794854E-3,1.021525473E-3,2.185569185E-3
4.028794292E0,8.123886073E-4,-3.444479080E-3,2.762433840E-3,4.489482387E-3
4.038843292E0,8.441589307E-4,8.929744363E-4,3.169106785E-4,1.269031135E-3
4.048892292E0,-8.533399086E-4,5.518235266E-4,-6.508820225E-4,1.206791453E-3
4.058941292E0,1.181125524E-3,1.714821439E-3,1.420120127E-3,2.520399025E-3
4.068990292E0,1.486590132E-3,-9.355568327E-4,-1.857964788E-3,2.556804639E-3
4.079039292E0,-1.751795993E-3,3.407909535E-4,-2.421574900E-4,1.800990818E-3
4.089088292E0,1.377151930E-3,-9.684190154E-4,-1.125528011E-3,2.025141015E-3
4.099137292E0,-3.261660691E-3,-1.163566019E-3,-1.743125031E-3,3.876957727E-3
4.109186292E0,-2.655258868E-3,1.335277688E-3,6.593124708E-4,3.044348714E-3
4.119235292E0,-9.213213343E-4,-2.206884790E-3,-2.143369056E-3,3.211417816E-3
4.129284292E0,-2.257961780E-3,-4.865881056E-5,-7.489183918E-5,2.259727388E-3
4.139333292E0,1.051281695E-3,1.053749584E-4,-1.446612761E-3,1.791364163E-3
4.149382292E0,-5.902907578E-4,1.858267933E-3,1.132658916E-3,2.254887826E-3
4.159431292E0,-9.201510111E-4,-1.258871984E-3,1.052724780E-3,1.881400015E-3
4.169480292E0,-1.747328788E-3,2.168349922E-3,1.708128839E-3,3.266895071E-3
4.179529292E0,-2.189676277E-3,6.103394553E-4,-1.822648570E-3,2.913630769E-3
4.189578292E0,-1.990471734E-3,-6.938106380E-4,-6.929356605E-4,2.218898545E-3
4.199627292E0,1.584392274E-3,1.347255893E-4,2.522491151E-3,2.981846990E-3
4.209676292E0,-3.176373430E-4,-1.141994260E-3,1.570677385E-3,1.967758069E-3
4.219725292E0,1.407228643E-3,-1.472081058E-4,1.731317258E-3,2.235938757E-3
4.229774292E0,4.796496942E-4,6.919540465E-4,1.411438570E-4,8.536895337E-4
4.239823292E0,-1.026913989E-3,3.573372960E-4,-9.030586225E-4,1.413420376E-3
4.249872292E0,-2.874349011E-3,-6.485390477E-4,-6.519225426E-4,3.017861517E-3
4.259921292E0,-1.280899043E-3,4.483270459E-4,-3.679493675E-4,1.406088986E-3
4.269970292E0,-4.124422849E-4,2.781506628E-4,-5.754096201E-4,7.606396390E-4
4.280019292E0,9.363904828E-4,1.101823058E-3,7.089391584E-4,1.610414828E-3
4.290068292E0,1.179270796E-3,4.232493229E-4,1.920196228E-4,1.267553208E-3
4.300117292E0,5.652500549E-4,-3.090640530E-4,4.567403812E-5,6.458438907E-4
4.310166292E0,1.615147921E-4,6.800340489E-4,-5.458140513E-4,8.868180841E-4
4.320215292E0,3.361887066E-4,6.524231285E-4,6.367125316E-4,9.716386329E-4
4.330264292E0,-1.786084380E-3,-4.956657067E-4,-1.169709605E-3,2.191803473E-3
4.340313292E0,-1.910992898E-3,-4.842202179E-4,2.779621864E-4,1.990885746E-3
4.350362292E0,-7.024503429E-4,3.078035079E-4,-1.662531286E-4,7.847417324E-4
4.360411292E0,1.922172727E-3,3.899354488E-5,4.564956180E-4,1.976020430E-3
4.370460292E0,1.343734213E-3,-9.386530146E-4,8.620949811E-4,1.851998616E-3
4.380509292E0,-1.127761090E-3,6.256909110E-4,-3.579690820E-4,1.338460330E-3
4.390558292E0,5.343178054E-4,-1.284061931E-3,-7.063105586E-4,1.559867034E-3
4.400607292E0,1.573872752E-3,3.392156214E-5,4.803444026E-4,1.645890901E-3
4.410656292E0,-1.489827759E-3,-6.925892085E-4,-1.608106541E-3,2.298972207E-3
4.420705292E0,-5.661955220E-4,-1.683376264E-3,6.723103579E-4,1.899035079E-3
4.430754292E0,-1.115605701E-3,-6.378190592E-4,-1.964127878E-4,1.299987390E-3
4.440803292E0,-2.074479591E-3,-2.631819807E-4,-3.213644959E-6,2.091109910E-3
4.450852292E0,2.412147820E-3,-1.572924666E-3,3.857304808E-3,4.813662794E-3
4.460901292E0,-9.409632185E-4,-1.487601083E-3,-2.439443488E-3,3.008197681E-3
4.470950292E0,-4.844973446E-4,2.064360306E-4,6.446056068E-5,5.305739114E-4
4.480999292E0,-3.763291752E-4,1.194999553E-3,-1.443029149E-3,1.911015621E-3
4.491048292E0,2.657589503E-4,-2.348516136E-4,1.483252272E-3,1.525064065E-3
4.501097292E0,9.491641540E-4,-1.305723563E-4,-1.261022524E-3,1.583710686E-3
4.511146292E0,2.904201392E-5,3.080933355E-3,5.105122109E-4,3.123078048E-3
4.521195292E0,-6.888956414E-4,-1.408723183E-4,4.810925457E-4,8.519813685E-4
4.531244292E0,2.868866432E-4,7.990375161E-5,1.817532466E-4,3.488879450E-4
4.541293292E0,6.786774611E-4,9.649805725E-5,3.771056654E-4,7.823833166E-4
4.551342292E0,9.204925154E-4,-8.036503568E-4,8.439578814E-4,1.485067430E-3
4.561391292E0,1.081164926E-3,-1.496094279E-3,-7.340576267E-4,1.986468295E-3
4.571440292E0,2.135776915E-3,3.084638156E-4,-5.897142692E-4,2.237064119E-3
4.581489292E0,9.803539142E-4,1.888713334E-3,2.972917282E-4,2.148654050E-3
4.591538292E0,1.504464075E-3,-1.016262919E-3,2.264517243E-4,1.829612761E-3
4.601587292E0,-1.246395521E-3,-1.674186438E-3,-1.862799516E-3,2.797574675E-3
4.611636292E0,1.336338231E-3,1.719479915E-3,1.244512969E-4,2.181260913E-3
4.621685292E0,-1.818069955E-3,-2.949815243E-4,8.856169297E-4,2.043700029E-3
4.631733292E0,3.303021076E-4,-3.405213356E-4,1.700255671E-4,5.039473740E-4
4.641782292E0,-7.886695676E-4,8.276579902E-4,6.926949718E-4,1.336728753E-3
4.651831292E0,1.136529609E-3,1.910498831E-3,-2.209749073E-5,2.223104504E-3
4.661880292E0,-4.716833646E-4,2.281567547E-3,-9.927572682E-4,2.532509164E-3
4.671929292E0,-2.173514513E-4,-1.349652652E-3,4.602633999E-4,1.442444568E-3
4.681978292E0,4.445582163E-4,1.363187097E-3,1.661375863E-4,1.443437829E-3
4.692027292E0,-2.206618665E-3,-4.706657492E-4,-1.861986239E-4,2.263926259E-3
4.702076292E0,-1.020574127E-4,4.166793078E-4,1.176432241E-3,1.252210117E-3
4.712125292E0,3.532092320E-3,-2.777516143E-3,7.114441250E-4,4.549332349E-3
4.722174292E0,2.024392830E-3,1.510087401E-3,-1.260910067E-3,2.822839791E-3
4.732223292E0,5.665784120E-4,-3.018618328E-3,2.717852592E-3,4.101193780E-3
4.742272292E0,-9.327684529E-5,-8.476977237E-4,2.870755270E-4,8.998357399E-4
4.752321292E0,2.085987944E-3,3.514019772E-5,7.189216558E-5,2.087522220E-3
4.762370292E0,6.511328975E-4,-1.331903040E-4,8.082804270E-4,1.046437268E-3
4.772419292E0,1.411998062E-3,5.174200051E-4,-1.226640888E-3,1.940646763E-3
4.782468292E0,-1.892369764E-4,6.520263851E-4,-7.791566895E-5,6.833885363E-4
4.792517292E0,-3.618097689E-4,1.393305138E-5,7.380768657E-4,8.221057709E-4
4.802566292E0,5.673306878E-4,1.968240831E-3,-1.153373858E-3,2.350767393E-3
4.812615292E0,-1.995162806E-3,-2.861246467E-4,5.483860150E-4,2.088843976E-3
4.822664292E0,2.425523562E-4,1.266659237E-4,-2.248793608E-3,2.265380452E-3
4.832713292E0,-5.460096872E-4,1.667765900E-5,1.384556992E-3,1.488422919E-3
4.842762292E0,7.569667650E-4,-7.926635444E-4,-2.248230157E-3,2.501170330E-3
4.852811292E0,1.247323235E-4,-2.296817023E-3,8.857778157E-4,2.464858805E-3
4.862860292E0,7.776106941E-6,5.305758677E-4,-3.871999215E-4,6.568827890E-4
4.872909292E0,1.316187205E-3,1.041369978E-3,7.539114449E-5,1.680025004E-3
4.882958292E0,1.193452277E-3,1.057627611E-3,5.110803177E-4,1.674546981E-3
4.893007292E0,4.357828875E-4,-8.494616486E-4,9.640839999E-4,1.356816044E-3
4.903056292E0,-1.758475788E-3,2.550906036E-3,-8.493323694E-4,3.212588392E-3
4.913105292E0,8.556831162E-4,-4.265084863E-4,2.454931382E-4,9.871018008E-4
4.923154292E0,-4.335589707E-3,-1.471040770E-3,-6.293911720E-4,4.621410207E-3
4.933203292E0,-7.584320847E-4,-9.589148685E-4,1.108587603E-3,1.650364634E-3
4.943252292E0,-3.102211631E-4,1.056073699E-3,1.207024907E-4,1.107293059E-3
4.953301292E0,1.772903372E-3,3.796308301E-4,8.128763875E-5,1.814914216E-3
4.963350292E0,8.508221945E-4,3.747125156E-4,-2.085760352E-4,9.527916028E-4
4.973399292E0,6.636020262E-4,5.832384340E-4,1.415685983E-3,1.668742498E-3
4.983448292E0,2.073829528E-4,3.083153628E-3,-2.421712037E-3,3.926007281E-3
4.993497292E0,1.244684216E-3,-1.115053892E-3,-4.379231832E-4,1.727530229E-3
5.003546417E0,5.462756963E-4,-1.435611863E-3,-1.057429821E-3,1.864820738E-3
5.013595417E0,-2.241254784E-3,2.246028744E-4,1.328229904E-3,2.614931000E-3
5.023644417E0,-1.564227045E-3,1.128647942E-3,-4.032821744E-4,1.970606236E-3
5.033693417E0,-1.879467163E-5,-9.318399243E-4,-2.016808721E-4,9.536005759E-4
5.043742417E0,-1.042701479E-4,1.830700785E-5,-2.526106080E-3,2.528323424E-3
5.053791417E0,1.582309720E-3,-6.442875601E-4,1.891279244E-3,2.548675674E-3
5.063840417E0,-6.567058153E-4,1.164999790E-3,1.418003812E-3,1.949159268E-3
5.073889417E0,-8.300776826E-4,1.335442532E-3,1.961454982E-4,1.584584732E-3
5.083938417E0,-2.196185291E-3,7.131202146E-4,-4.623817513E-4,2.354902791E-3
5.093987417E0,-1.771677402E-3,2.482524607E-3,-2.575333696E-3,3.991755615E-3
5.104036417E0,-7.019154727E-4,9.311083704E-4,-3.066893551E-4,1.205697511E-3
5.114085417E0,-1.088295539E-4,-4.004719667E-4,2.531070495E-4,4.860913972E-4
5.124134417E0,-2.565216273E-4,-2.370786387E-3,-1.520104706E-5,2.384672412E-3
5.134183417E0,-7.151179598E-4,-2.706344705E-3,-9.142842027E-4,2.944759916E-3
5.144232417E0,2.688601613E-3,4.163943231E-5,1.603363198E-3,3.130668622E-3
5.154281417E0,2.965570195E-3,1.060032286E-3,1.061143470E-3,3.323296630E-3
5.164330417E0,3.258053330E-4,-1.251717564E-3,1.514791511E-4,1.302264147E-3
5.174379417E0,1.758319675E-3,2.184292767E-3,6.931660464E-4,2.888477478E-3
5.184428417E0,1.167668845E-3,-3.418456763E-4,-3.820308484E-5,1.217279127E-3
5.194477417E0,-1.772274845E-4,-5.876556970E-4,-1.491223695E-3,1.612605627E-3
5.204526417E0,2.396974945E-3,-7.727877237E-4,1.518641366E-4,2.523044286E-3
5.214575417E0,-4.105294356E-4,2.008639276E-4,1.038963092E-3,1.135044070E-3
5.224624417E0,-8.167466149E-4,1.336764544E-3,2.853338374E-4,1.592303325E-3
5.234673417E0,-9.094246197E-4,1.838821918E-4,-1.095515210E-3,1.435625082E-3
5.244722417E0,-2.731055720E-3,-1.465068199E-4,3.773800563E-5,2.735242905E-3
5.254771417E0,-1.607734477E-3,5.650897510E-4,-1.806411310E-4,1.713700030E-3
5.264820417E0,-1.014119829E-3,2.093612216E-3,-1.173902885E-3,2.605705111E-3
5.274869417E0,-9.744387353E-4,-1.157461666E-4,-5.169010255E-4,1.109105358E-3
5.284918417E0,-1.037405338E-3,-2.674572170E-5,4.445048980E-4,1.128941882E-3
5.294967417E0,4.516969784E-5,-1.025964040E-3,-1.482292078E-3,1.803283760E-3
5.305016417E0,8.410305600E-5,4.061530344E-4,3.257261124E-4,5.273813721E-4
5.315065417E0,3.924971097E-4,1.355758868E-4,8.410478476E-4,9.379745648E-4
5.325114417E0,-6.846594624E-4,1.553205308E-3,-4.652087227E-4,1.760006950E-3
5.335163417E0,-2.415094932E-4,6.282897666E-4,1.568380976E-3,1.706720174E-3
5.345212417E0,2.983636805E-4,3.056973219E-5,-2.021195833E-3,2.043327675E-3
5.355261417E0,-2.784245415E-3,7.877312601E-5,-1.399390167E-4,2.788872651E-3
5.365310417E0,-9.199089836E-4,-6.745308638E-4,-3.161962959E-4,1.183724851E-3
5.375359417E0,1.469745417E-3,-1.234593801E-3,4.313529935E-4,1.967343094E-3
5.385408417E0,9.661688819E-4,-1.332456712E-3,-1.945944736E-3,2.548651430E-3
5.395457417E0,9.896047413E-4,2.355488483E-3,-7.294126553E-4,2.657007030E-3
5.405506417E0,2.732463647E-3,7.191300392E-5,-1.334971748E-3,3.041985968E-3
5.415555417E0,8.765065577E-4,2.221153118E-4,-1.469461364E-3,1.725374063E-3
5.425604417E0,1.664873562E-3,2.161324956E-4,1.203636639E-3,2.065734347E-3
5.435653417E0,-1.093095983E-3,9.455722757E-4,-1.730634249E-3,2.254786167E-3
5.445702417E0,-5.012950860E-4,-3.398670815E-4,-2.948976122E-3,3.010525961E-3
5.455751417E0,2.089699265E-4,2.750568092E-4,-8.695799625E-4,9.356783580E-4
5.465800417E0,4.651988856E-4,-1.263440587E-3,3.171960125E-4,1.383222842E-3
5.475849417E0,1.536322292E-3,-6.280103698E-4,6.828479236E-4,1.794704571E-3
5.485898417E0,4.515530018E-4,-1.495641656E-3,-1.154390862E-3,1.942540177E-3
5.495947417E0,3.146665113E-4,1.805345993E-3,1.402776456E-3,2.307828190E-3
5.505996417E0,3.250651527E-3,6.107613444E-6,-5.943399156E-4,3.304544233E-3
5.516045417E0,2.297772560E-3,-4.146718420E-4,-9.543992928E-4,2.522417389E-3
5.526094417E0,3.575373848E-4,-1.364480704E-4,-1.064227079E-3,1.130942232E-3
5.536143417E0,-3.260960511E-4,1.569839194E-3,-2.054390498E-3,2.606003463E-3
5.546192417E0,5.005952436E-3,-8.267038502E-4,6.944653578E-4,5.121062506E-3
5.556241417E0,-2.244958596E-4,8.675991558E-4,-2.651263960E-3,2.798629534E-3
5.566290417E0,2.911945921E-4,-2.414761577E-3,1.112714177E-3,2.674696357E-3
5.576339417E0,-2.406386775E-4,2.326867543E-4,1.225509914E-4,3.564671713E-4
5.586388417E0,-1.075251028E-3,1.334054396E-3,-1.462027896E-3,2.252419027E-3
5.596437417E0,-9.197224863E-4,-7.795356214E-5,1.728866482E-4,9.390718837E-4
5.606486417E0,-1.123205060E-3,2.050140873E-3,-2.797880443E-4,2.354346736E-3
5.616535417E0,-9.123003110E-5,3.779423423E-4,8.616427658E-4,9.452997348E-4
5.626584417E0,9.895733092E-4,8.988096379E-4,-2.056643367E-3,2.452936207E-3
5.636633417E0,-2.792914398E-3,-1.352360472E-3,-1.490987837E-3,3.442716139E-3
5.646682417E0,-6.974447751E-4,1.089088619E-5,-9.982552147E-4,1.217810042E-3
5.656731417E0,-3.251347807E-4,1.356585883E-3,-1.803861465E-3,2.280340779E-3
5.666780417E0,-7.654973306E-4,-1.281213481E-3,9.354701033E-4,1.761419445E-3
5.676829417E0,1.337867230E-3,-5.688178353E-4,1.079547103E-3,1.810763486E-3
5.686878417E0,1.938562142E-3,9.629498236E-4,2.280302579E-4,2.176532412E-3
5.696927417E0,-2.234078711E-3,1.068410929E-3,1.423789538E-3,2.856533957E-3
5.706976417E0,1.521675382E-3,-4.807393998E-5,1.750572119E-3,2.319980563E-3
5.717025417E0,-3.062956268E-3,-3.981823102E-5,-8.899520035E-4,3.189874787E-3
5.727074417E0,7.622862468E-4,5.279318430E-4,-2.249848098E-3,2.433435599E-3
5.737123417E0,7.359209703E-4,-2.140249126E-4,-4.756503040E-4,9.020141626E-4
5.747172417E0,-1.338556758E-3,4.907152615E-4,-9.307030123E-4,1.702569752E-3
5.757221417E0,-9.745026473E-4,1.577817835E-3,-2.642583102E-3,3.228375750E-3
5.767270417E0,-1.696624968E-4,-5.590217188E-5,4.097284982E-4,4.469763505E-4
5.777319417E0,1.214210060E-4,-1.784293912E-3,4.755085101E-4,1.850555638E-3
5.787368417E0,-2.644624561E-3,8.869725280E-4,-6.730417954E-4,2.869450225E-3
5.797417417E0,1.543995109E-3,2.839602530E-3,-2.588387113E-3,4.140894985E-3
5.807466417E0,-1.583116129E-3,2.287399024E-3,-1.110405428E-3,2.995238085E-3
5.817515417E0,7.926899707E-4,-5.451389588E-4,-5.796374171E-4,1.123171140E-3
5.827564417E0,-2.588153875E-4,-3.194562159E-4,-1.227639965E-3,1.294657314E-3
5.837613417E0,4.905981477E-4,1.771391369E-3,-3.874126705E-4,1.878457480E-3
5.847662417E0,1.518003410E-4,5.381377414E-4,-2.752739703E-3,2.808952019E-3
5.857711417E0,1.338238595E-3,7.498590276E-4,3.319315147E-5,1.534364000E-3
5.867760417E0,-7.937978371E-4,-3.825063584E-3,8.952117059E-5,3.907587551E-3
5.877809417E0,-6.180292112E-4,2.439804375E-4,-6.516365102E-4,9.306539105E-4
5.887858417E0,6.809335900E-4,-2.096526325E-3,9.762019617E-4,2.410822153E-3
5.897907417E0,9.440539870E-4,2.290498931E-3,-1.253130264E-3,2.776321080E-3
5.907956417E0,1.321806340E-3,3.791321069E-5,5.186377093E-4,1.420420531E-3
5.918005417E0,-7.266971515E-4,6.517721340E-4,-1.223868574E-3,1.565487129E-3
5.928054417E0,-6.772728520E-4,1.572393812E-4,5.576456897E-5,6.975187641E-4
5.938103417E0,9.477880085E-4,3.260839731E-4,-2.334422432E-3,2.540504075E-3
5.948152417E0,-8.108194452E-4,-4.578819498E-4,-9.921912570E-4,1.360708471E-3
5.958201417E0,1.412121113E-3,-2.312469296E-4,1.114369137E-3,1.813664731E-3
5.968250417E0,-6.593260914E-4,5.947863683E-4,-1.347643440E-3,1.613884927E-3
5.978299417E0,-1.583709149E-3,-1.183672808E-3,-1.499443548E-3,2.481440496E-3
5.988348417E0,-1.777668134E-3,-4.189298488E-4,-1.228363486E-3,2.201018643E-3
5.998397417E0,-1.143569476E-3,-2.897001104E-3,1.299242605E-3,3.374670042E-3
6.008446167E0,-2.363542560E-3,6.880778819E-4,-2.063414548E-3,3.212080977E-3
6.018495167E0,2.815506887E-3,-2.145259175E-3,4.639253020E-4,3.569935944E-3
6.028544167E0,1.196525409E-5,1.886620186E-3,-9.984455537E-4,2.134566096E-3
6.038593167E0,-2.051984658E-3,-6.103594787E-4,-5.811281735E-4,2.218307843E-3
6.048642167E0,6.455070106E-4,4.120236263E-4,-2.240054077E-3,2.367337119E-3
6.058691167E0,1.767496811E-3,1.116696279E-3,-2.354927710E-4,2.103927851E-3
6.068740167E0,2.647279296E-3,-2.506947611E-3,5.647580838E-4,3.689420779E-3
6.078789167E0,1.876027789E-3,3.538201563E-4,2.395861084E-4,1.924076524E-3
6.088838167E0,-8.159941062E-4,-4.608090967E-5,-1.078287023E-4,8.243766498E-4
6.098887167E0,1.640239381E-3,3.834161907E-5,1.351583516E-3,2.125707720E-3
6.108936167E0,8.151786169E-4,5.278089084E-4,-2.590791788E-3,2.766821373E-3
6.118985167E0,8.865513373E-4,2.657538280E-4,9.195207385E-4,1.304651969E-3
6.129034167E0,3.735289501E-4,-6.633419544E-4,2.365267719E-4,7.971771063E-4
6.139083167E0,5.202690954E-4,-2.753194422E-4,5.350671127E-4,7.954731560E-4
6.149132167E0,1.557414653E-3,-5.021505058E-4,5.593196256E-4,1.729316042E-3
6.159181167E0,-7.930912543E-4,-6.076116115E-4,-9.496273706E-4,1.378396805E-3
6.169230167E0,7.377259317E-5,5.064448342E-4,-1.355256885E-3,1.448671802E-3
6.179279167E0,-2.775010653E-3,-1.729811542E-3,-1.354990643E-3,3.539623107E-3
6.189328167E0,4.082393716E-4,5.397917703E-4,-1.713408506E-3,1.842227795E-3
6.199377167E0,-9.344279533E-6,5.248780362E-4,2.703801729E-4,5.904995397E-4
6.209426167E0,-2.134571783E-3,9.497785941E-4,-5.911029293E-4,2.409954097E-3
6.219475167E0,-2.312105498E-4,1.161499880E-3,-1.450504991E-3,1.872566426E-3
6.229524167E0,8.248529048E-5,1.830911729E-3,-1.248526154E-3,2.217624662E-3
6.239573167E0,-1.588381943E-3,5.533932708E-4,-2.086356748E-3,2.679941378E-3
6.249622167E0,-5.598468706E-4,2.046264708E-4,3.342275741E-4,6.833802619E-4
6.259671167E0,1.058023423E-3,-1.152195036E-4,-8.982834406E-4,1.392696032E-3
6.269720167E0,-6.957415026E-4,-1.828866545E-3,-1.138230087E-3,2.263708641E-3
6.279769167E0,7.258539554E-4,-8.099409752E-4,-2.498572692E-3,2.725019972E-3
6.289818167E0,1.771996962E-3,5.007656291E-4,-7.980238297E-4,2.006883525E-3
6.299867167E0,4.191111657E-4,4.088864662E-4,-6.515500136E-4,8.759907143E-4
6.309916167E0,-3.714938066E-4,3.939364105E-4,-1.204700093E-3,1.320793647E-3
6.319965167E0,-2.776594600E-3,-3.325738944E-4,1.071731094E-4,2.798494067E-3
6.330014167E0,-5.853953771E-4,1.630526967E-4,2.082758583E-4,6.423805435E-4
6.340063167E0,5.395238404E-4,-3.987217322E-3,1.498577418E-3,4.293567540E-3
6.350112167E0,-6.535618450E-4,1.279795542E-4,-1.820398262E-3,1.938394099E-3
6.360161167E0,1.143272966E-3,-1.900550444E-3,5.205203779E-4,2.278180530E-3
6.370210167E0,4.395122523E-4,1.847199630E-3,-2.006686991E-4,1.909341619E-3
6.380259167E0,6.901157321E-4,-2.549412660E-3,1.037967508E-3,2.837805699E-3
6.390308167E0,2.451075125E-5,4.884731025E-4,1.534912968E-3,1.610951448E-3
6.400357167E0,-1.769394497E-3,-2.232147381E-5,-2.409761306E-3,2.989683041E-3
6.410406167E0,-6.910214433E-4,-1.327735838E-3,-2.032303717E-3,2.524014954E-3
6.420455167E0,-9.400270646E-4,-1.164750662E-3,3.938361770E-4,1.547708603E-3
6.430504167E0,2.599520376E-3,1.618274953E-3,8.973024087E-4,3.190841836E-3
6.440553167E0,7.166652940E-4,-1.489367336E-3,6.275242195E-4,1.767939719E-3
6.450602167E0,1.117820852E-3,-1.905920450E-3,-8.382526576E-4,2.363202009E-3
6.460651167E0,-6.284137489E-4,1.709320582E-3,-1.262227888E-3,2.215829401E-3
6.470700167E0,-7.667975733E-4,-1.020325813E-3,-1.068354468E-3,1.664459237E-3
6.480749167E0,-2.092252951E-3,2.259623259E-3,3.497787984E-4,3.099316843E-3
6.490798167E0,1.124341739E-3,-2.044653520E-4,-3.509626957E-3,3.690993335E-3
6.500847167E0,1.291588298E-3,-9.858366102E-4,1.317086164E-3,2.091599894E-3
6.510896167E0,-2.262730384E-3,1.230463851E-3,-1.149240532E-3,2.820415551E-3
6.520945167E0,-4.165415885E-5,-1.788495574E-3,3.346934682E-5,1.789293627E-3
6.530994167E0,1.255537267E-3,-2.432558686E-4,1.309921034E-3,1.830693956E-3
6.541043167E0,8.800745127E-5,-3.583044745E-4,4.566442803E-4,5.870701889E-4
6.551092167E0,4.586646101E-4,-4.441323690E-4,1.491990872E-3,1.622856601E-3
6.561141167E0,7.782439352E-4,4.754569381E-4,-1.300333301E-3,1.588266229E-3
6.571190167E0,-9.130617254E-4,-1.269703265E-3,-1.799291931E-4,1.574230800E-3
6.581239167E0,-2.260088688E-3,-1.292074099E-3,1.435277984E-3,2.972789808E-3
6.591288167E0,-8.283820935E-4,-1.093676314E-3,8.010299644E-4,1.588708210E-3
6.601337167E0,-1.831861213E-3,1.275471877E-3,-5.228274385E-4,2.292573345E-3
6.611386167E0,2.303391811E-4,5.156891420E-4,1.983274240E-3,2.062127091E-3
6.621435167E0,6.370038609E-4,1.316501293E-3,1.582202036E-3,2.154602714E-3
6.631484167E0,7.520989748E-4,4.245052114E-4,6.931337994E-4,1.107380696E-3
6.641533167E0,-3.025127808E-4,-8.112015203E-4,5.631715758E-4,1.032823370E-3
6.651582167E0,-2.255336847E-3,-1.136123668E-3,-7.299357094E-6,2.525346425E-3
6.661631167E0,-5.764799425E-6,-1.848423854E-4,1.267289510E-3,1.280711772E-3
6.671680167E0,9.047398926E-4,6.447713822E-4,-1.106956624E-4,1.116484634E-3
6.681729167E0,-9.538802551E-4,5.978997797E-4,-7.421311457E-4,1.348380631E-3
6.691778167E0,9.192225989E-4,-8.162232116E-4,-3.466411727E-5,1.229793527E-3
6.701827167E0,-3.103588533E-4,-6.644227542E-4,-1.364380470E-3,1.548972008E-3
6.711876167E0,5.687297089E-4,3.152843099E-3,4.693371593E-4,3.237923788E-3
6.721925167E0,-2.280881163E-4,-3.366973251E-4,-2.060405095E-4,4.558968843E-4
6.731974167E0,-6.786945742E-4,-5.520358682E-4,6.198943011E-4,1.072212138E-3
6.742023167E0,1.842253725E-3,-1.376817003E-3,2.491822816E-4,2.313355929E-3
6.752072167E0,1.942763920E-3,-1.511610113E-3,1.131822472E-3,2.709302288E-3
6.762121167E0,3.027893545E-4,7.776450366E-5,-1.715895603E-3,1.744140600E-3
6.772170167E0,-2.060383849E-4,-2.131607383E-3,1.575493021E-3,2.658642532E-3
6.782219167E0,6.003667368E-4,-1.992590260E-3,-8.599676657E-4,2.251754993E-3
6.792268167E0,2.985313768E-5,-9.749694727E-4,2.809177968E-4,1.015072161E-3
6.802317167E0,1.604047720E-3,1.076996326E-3,-1.409269171E-4,1.937201738E-3
6.812366167E0,-5.701648770E-4,-6.562978961E-4,1.678549685E-3,1.890329061E-3
6.822415167E0,-5.832144525E-4,2.321382053E-3,-7.190941833E-4,2.499209911E-3
6.832464167E0,7.425347576E-4,-1.196058001E-3,-4.025836533E-4,1.464235707E-3
6.842513167E0,-2.135543618E-3,-1.557981595E-3,-2.771487925E-4,2.657943688E-3
6.852562167E0,-3.828236659E-4,9.860456921E-4,-4.063612141E-4,1.133123781E-3
6.862611167E0,-1.866470673E-3,2.100845333E-3,-2.262584399E-3,3.607845902E-3
6.872660167E0,1.129343640E-3,-2.338046208E-3,4.542071838E-5,2.596909735E-3
6.882709167E0,8.458556840E-5,1.543511171E-3,5.090771010E-4,1.627495299E-3
6.892758167E0,2.933057491E-3,6.113122217E-4,7.592673646E-4,3.090795336E-3
6.902807167E0,1.755407779E-3,-1.844388433E-3,4.543353571E-4,2.586434955E-3
6.912856167E0,2.902314533E-3,1.001785044E-3,-2.977796830E-4,3.084748881E-3
6.922905167E0,-6.090634270E-4,9.248196147E-4,-7.827412919E-4,1.356072825E-3
6.932954167E0,3.437343519E-3,-8.636792190E-4,3.147305222E-3,4.739915867E-3
6.943003167E0,1.471131574E-3,-1.361423638E-3,1.283624908E-3,2.380209095E-3
6.953052167E0,2.251827391E-3,-1.951125450E-4,-1.806258806E-4,2.267470223E-3
6.963101167E0,8.318299078E-4,-1.700790599E-4,-5.398862995E-4,1.006153616E-3
6.973150167E0,-2.005144255E-3,-4.371115938E-5,6.200912176E-4,2.099292087E-3
6.983199167E0,2.282278845E-3,1.650806516E-4,-1.181369880E-4,2.291288872E-3
6.993248167E0,-1.620312687E-3,5.926527083E-4,6.063231267E-4,1.828736769E-3
7.003297167E0,-1.116708852E-3,-1.432148274E-3,7.069905987E-4,1.948826069E-3
7.013346917E0,-8.974283701E-4,1.184090972E-3,-1.371782972E-3,2.022186349E-3
7.023395917E0,-1.918218099E-3,-2.252534032E-4,-8.609887445E-4,2.114616132E-3
7.033444917E0,1.201195875E-3,5.858512595E-4,3.613827867E-4,1.384446007E-3
7.043493917E0,-1.056632027E-3,-2.209136263E-3,-9.590124828E-4,2.629916198E-3
7.053542917E0,-4.559236113E-4,1.897452399E-3,-6.349988980E-4,2.052173372E-3
7.063591917E0,-9.020030848E-4,-2.365382388E-4,6.941847969E-4,1.162519865E-3
7.073640917E0,8.145485772E-4,4.280698486E-4,2.036717487E-4,9.424517818E-4
7.083689917E0,1.229469082E-3,-2.163452562E-3,6.199239288E-4,2.564454501E-3
7.093738917E0,1.713201171E-3,5.030538887E-6,2.378738020E-3,2.931463478E-3
7.103787917E0,-2.075411845E-3,3.158217296E-4,-5.595276598E-4,2.172590365E-3
7.113836917E0,2.120675752E-3,6.746081635E-4,-2.042386215E-3,3.020546850E-3
7.123885917E0,-4.868253309E-4,-5.579027347E-4,1.622123411E-3,1.783126110E-3
7.133934917E0,-2.057297621E-3,1.178968232E-3,6.708331639E-4,2.464235526E-3
7.143983917E0,1.842850761E-4,-4.109395668E-4,-6.903085159E-4,8.242318630E-4
7.154032917E0,-1.154485159E-3,3.538890742E-4,-1.562361140E-4,1.217572660E-3
7.164081917E0,-1.182491251E-4,1.128070056E-3,4.815909197E-4,1.232255948E-3
7.174130917E0,-2.568607451E-4,5.653039552E-4,1.781726023E-3,1.886821037E-3
7.184179917E0,-1.703756163E-3,-5.899756216E-4,-5.314956652E-4,1.879719112E-3
7.194228917E0,-1.979655819E-3,1.079642680E-3,6.171219284E-4,2.337841943E-3
7.204277917E0,9.652677691E-4,-2.418419346E-3,1.653091633E-3,3.084348545E-3
7.214326917E0,-1.607016020E-4,2.334466670E-3,-3.819266800E-3,4.479102424E-3
7.224375917E0,7.951550651E-5,6.529469974E-4,9.573787684E-4,1.161566444E-3
7.234424917E0,-1.094628591E-3,1.275867689E-3,9.304611012E-5,1.683659019E-3
7.244473917E0,1.503551146E-3,-6.077298895E-5,1.123955823E-3,1.878200228E-3
7.254522917E0,-8.226787904E-4,-1.690931618E-3,1.125455950E-3,2.191506611E-3
7.264571917E0,-2.719371405E-4,-7.252693176E-4,-8.000094676E-4,1.113544135E-3
7.274621917E0,-1.017619506E-3,-2.418071963E-4,9.094349807E-4,1.386034691E-3
7.284670917E0,9.185340605E-5,-1.284700818E-3,6.601185305E-5,1.289670813E-3
7.294719917E0,-6.257358473E-4,-6.738132797E-4,1.088437275E-4,9.259679495E-4
7.304768917E0,-1.032933127E-3,-7.824702188E-4,-1.208355767E-3,1.771816624E-3
7.314817917E0,7.160774549E-4,-5.723419599E-4,-2.660639584E-3,2.814133123E-3
7.324866917E0,-1.536956872E-3,6.457879208E-4,1.726974733E-4,1.676037852E-3
7.334915917E0,-9.747811127E-4,2.362318337E-4,9.652895969E-4,1.392044433E-3
7.344964917E0,-2.616315032E-5,2.399603836E-4,7.844609790E-4,8.207585052E-4
7.355013917E0,-2.238892252E-3,-1.699815039E-3,-1.563607948E-4,2.815396664E-3
7.365062917E0,-1.206917455E-3,2.307709306E-3,5.195494741E-4,2.655579719E-3
7.375111917E0,-2.298770705E-4,-7.299538702E-4,-2.950562630E-4,8.202038274E-4
7.385160917E0,1.642325195E-3,1.694588456E-3,-3.597710747E-4,2.387110661E-3
7.395209917E0,-1.390236139E-4,1.821230631E-3,1.752305659E-3,2.531162520E-3
7.405258917E0,5.392835010E-4,1.164761838E-3,-8.589237696E-4,1.544424448E-3
7.415307917E0,4.253461375E-4,1.640378032E-3,-2.115716925E-4,1.707782775E-3
7.425356917E0,8.887362201E-4,-1.205038279E-4,6.541202310E-6,8.968924288E-4
7.435405917E0,-2.697422169E-4,2.183798235E-3,-1.690595294E-3,2.774860004E-3
7.445454917E0,-2.284157323E-3,-2.119811252E-4,1.614121255E-3,2.804941728E-3
7.455503917E0,-1.247257227E-3,5.851755850E-4,-9.240588406E-4,1.658904999E-3
7.465552917E0,1.223889878E-3,1.009417232E-3,6.085903733E-4,1.699179751E-3
7.475601917E0,-3.793145879E-5,-2.309817821E-3,3.029496293E-4,2.329908934E-3
7.485650917E0,-4.054477031E-4,-1.693828497E-3,-1.277902746E-3,2.160203288E-3
7.495699917E0,-4.554251209E-4,-2.202806063E-4,-1.330684172E-3,1.423606670E-3
7.505748917E0,-1.127340598E-3,9.550247341E-6,-7.431908743E-4,1.350303931E-3
7.515797917E0,-5.919920513E-4,4.535280168E-4,-1.022872515E-3,1.265863513E-3
7.525846917E0,2.046667971E-3,9.073303081E-4,-9.011660004E-4,2.413337571E-3
7.535895917E0,1.339002745E-3,-1.981647685E-3,3.995914012E-4,2.424774049E-3
7.545944917E0,-1.904993784E-3,-6.111846305E-4,2.465139143E-3,3.174816367E-3
7.555993917E0,-3.459051368E-5,6.912699901E-4,-1.508969930E-3,1.660132812E-3
7.566042917E0,-2.740086929E-4,7.093795575E-4,1.595611684E-5,7.606278447E-4
7.576091917E0,4.366674693E-4,3.030510619E-3,-4.399137571E-3,5.359765337E-3
7.586140917E0,2.344023436E-3,-6.052367389E-4,1.492040930E-3,2.843755179E-3
7.596189917E0,-2.379181562E-3,-1.703030430E-4,-1.069431542E-3,2.614037462E-3
7.606238917E0,-1.277452102E-4,-2.866829745E-4,-1.382086659E-3,1.417275379E-3
7.616287917E0,-1.516273012E-3,1.288971398E-3,-1.841014484E-3,2.711063526E-3
7.626336917E0,-1.733191311E-6,1.202951185E-3,2.306059934E-3,2.600962702E-3
7.636385917E0,-1.038421062E-3,3.414276056E-3,-3.204632783E-3,4.796380986E-3
7.646434917E0,-7.737028645E-4,-3.474391997E-4,5.504242727E-4,1.011087039E-3
7.656483917E0,5.627778592E-6,-1.448961906E-3,-7.627799641E-4,1.637484519E-3
7.666532917E0,1.145510760E-4,4.970100708E-4,1.628738712E-3,1.706731013E-3
7.676581917E0,1.701629604E-3,2.707471140E-4,-2.783227828E-4,1.745368408E-3
7.686630917E0,5.865640705E-4,1.608719584E-3,1.038876711E-3,2.002823240E-3
7.696679917E0,-3.693764447E-4,-2.306606621E-4,6.114816060E-4,7.507017074E-4
7.706728917E0,6.290426245E-4,5.909148604E-5,-1.169640571E-3,1.329377859E-3
7.716777917E0,-2.071507042E-4,-3.438750748E-3,1.594018308E-3,3.795894161E-3
7.726826917E0,1.324433251E-3,-7.518874481E-4,7.282081060E-5,1.524716709E-3
7.736875917E0,3.510545066E-4,5.043158308E-4,-2.444099868E-3,2.520158306E-3
7.746924917E0,-4.825149081E-4,1.294209156E-3,8.004292613E-4,1.596397500E-3
7.756973917E0,1.865388826E-3,-2.025738358E-4,6.627010880E-4,1.989945819E-3
7.767022917E0,9.391413769E-4,-1.094732434E-3,1.796142315E-3,2.303595633E-3
7.777071917E0,8.594535757E-5,1.286275219E-3,6.859182613E-4,1.460265183E-3
7.787120917E0,1.159731881E-3,-1.959052868E-3,2.221496776E-3,3.180866879E-3
7.797169917E0,-2.891575452E-3,-1.426951960E-3,-1.535697957E-4,3.228154918E-3
7.807218917E0,1.643255353E-3,-1.699398272E-4,2.005454851E-3,2.598271899E-3
7.817268917E0,8.939919062E-4,1.765381545E-3,-1.402923721E-3,2.425693405E-3
7.827317917E0,1.679890789E-3,-3.511406016E-3,-4.843994975E-5,3.892859065E-3
7.837366917E0,-1.599207986E-3,6.689922884E-4,-1.897913404E-3,2.570426454E-3
7.847415917E0,9.536981815E-4,1.223728992E-3,-8.158710552E-4,1.752911420E-3
7.857464917E0,-9.545404464E-4,1.037736889E-3,-8.042127592E-5,1.412272246E-3
7.867513917E0,-5.247062072E-4,9.591733105E-4,1.330521423E-3,1.722096775E-3
7.877562917E0,-1.480520936E-3,-6.261337548E-4,-3.064665012E-3,3.460658515E-3
7.887611917E0,-6.661262014E-4,1.139808446E-3,1.974834828E-3,2.375470481E-3
7.897660917E0,2.480718307E-3,4.759058356E-6,9.896840202E-4,2.670853876E-3
7.907709917E0,1.222108258E-3,-3.885901533E-4,-3.413638333E-4,1.327056957E-3
7.917758917E0,-5.358345807E-4,-1.629977487E-4,2.267057425E-4,6.042205372E-4
7.927807917E0,5.384846008E-4,1.458067913E-3,1.347630285E-3,2.057191067E-3
7.937856917E0,4.646064481E-4,5.427268334E-4,-3.041232936E-3,3.124021341E-3
7.947905917E0,-1.039014314E-3,-1.376613509E-3,-1.471759751E-4,1.730975524E-3
7.957954917E0,-9.038824355E-4,-5.772789009E-4,1.624890021E-3,1.946926287E-3
7.968003917E0,1.786926005E-4,-1.521635801E-3,-1.636150642E-3,2.241494028E-3
7.978052917E0,-3.950137470E-4,-6.831558421E-4,2.274479484E-3,2.407487215E-3
7.988101917E0,-1.438776671E-4,1.195171382E-3,-6.214417517E-4,1.354741771E-3
7.998150917E0,-1.482456690E-3,-1.588023268E-3,-1.342491596E-4,2.176584152E-3
8.008200000E0,9.210462449E-4,-7.499265485E-4,1.655128784E-3,2.037195942E-3
8.018249000E0,1.196128724E-4,3.909142688E-4,4.105409607E-4,5.793661064E-4
8.028298000E0,-5.163499736E-4,-7.348037325E-4,-8.145131287E-4,1.212429568E-3
8.038347000E0,-4.724733008E-4,-2.360428683E-3,-9.137991583E-4,2.574856014E-3
8.048396000E0,9.195609600E-4,1.892106608E-3,5.046004080E-4,2.163395790E-3
8.058445000E0,-4.115493968E-3,2.992902882E-4,-8.508422179E-4,4.213169562E-3
8.068494000E0,-9.713663021E-4,8.218022995E-4,7.593049086E-4,1.481706940E-3
8.078543000E0,-8.694903227E-4,-1.155084465E-3,-9.614588926E-4,1.736270930E-3
8.088592000E0,8.865980199E-4,4.481384531E-4,-1.278895070E-4,1.001618614E-3
8.098641000E0,1.511737704E-3,8.560009301E-4,-1.358352834E-3,2.205268895E-3
8.108690000E0,1.943436102E-3,-1.097960398E-3,-1.412881538E-4,2.236609769E-3
8.118739000E0,-1.347481622E-3,3.972151317E-4,1.240360783E-3,1.874028137E-3
8.128788000E0,-1.640429255E-3,-5.322280340E-4,-9.713944746E-4,1.979364051E-3
8.138837000E0,5.560067948E-4,1.081966795E-3,5.574002862E-4,1.338092217E-3
8.148886000E0,-9.585329099E-4,-4.155291244E-4,-6.284995470E-5,1.046613543E-3
8.158935000E0,1.556111965E-3,1.354312524E-3,1.018410665E-3,2.300610168E-3
8.168984000E0,1.620560535E-3,-2.779387869E-4,-1.099601388E-3,1.978026701E-3
8.179033000E0,2.710043686E-3,5.838852376E-4,9.660021169E-4,2.935714366E-3
8.189082000E0,-6.359518156E-4,8.856216446E-4,-3.519961610E-4,1.145714496E-3
8.199131000E0,-2.975551179E-4,-1.165381633E-3,1.914345776E-3,2.260834613E-3
8.209180000E0,-2.086666878E-3,5.230624229E-4,1.470721327E-4,2.156247475E-3
8.219229000E0,-3.633798100E-3,-2.591421362E-3,-1.473689801E-3,4.700182437E-3
8.229278000E0,-1.239349833E-3,3.978190944E-5,-3.024315811E-4,1.276336738E-3
8.239328000E0,-3.301904770E-3,4.177121446E-5,-9.869430214E-4,3.446502063E-3
8.249377000E0,-2.206546487E-3,-1.538015902E-3,-1.046864083E-3,2.886219798E-3
8.259426000E0,-9.101311443E-4,2.203992102E-3,-1.022863435E-3,2.594642460E-3
8.269475000E0,-1.321056858E-3,5.967747420E-4,2.517255489E-4,1.471290952E-3
8.279524000E0,-5.302181235E-4,1.176992897E-3,4.284607712E-4,1.360155201E-3
8.289573000E0,-2.024517627E-3,4.664612934E-4,-4.402623745E-4,2.123696946E-3
8.299622000E0,-9.338333039E-4,-1.746515278E-3,2.150327433E-3,2.923400131E-3
8.309671000E0,-6.331623299E-4,-4.956284538E-4,4.624158610E-4,9.275616037E-4
8.319720000E0,2.504529199E-3,3.987863660E-3,-2.486364916E-3,5.325197984E-3
8.329769000E0,-4.675584205E-4,-1.335795503E-3,7.352610119E-4,1.594857128E-3
8.339818000E0,7.627732703E-4,-4.005338997E-5,-1.623601769E-3,1.794299317E-3
8.349867000E0,5.037768278E-5,5.395617336E-5,9.199833730E-4,9.229401856E-4
8.359916000E0,-8.355940809E-4,1.928275917E-3,-2.089506947E-3,2.963529105E-3
8.369965000E0,-1.166891307E-3,4.651350901E-4,1.865021070E-3,2.248619479E-3
8.380014000E0,6.194716552E-4,-1.425803173E-3,-1.802845509E-4,1.564979981E-3
8.390063000E0,1.932410058E-3,-9.003612213E-4,-3.000039607E-3,3.680366368E-3
8.400112000E0,2.652516589E-3,-3.385152668E-4,1.833938761E-3,3.242494135E-3
8.410161000E0,-1.092953025E-3,6.409953348E-4,-2.131241839E-3,2.479438064E-3
8.420210000E0,-1.392789884E-3,3.586700186E-4,3.548043547E-3,3.828461944E-3
8.430259000E0,-5.108932965E-5,-2.751102904E-3,3.487879876E-4,2.773595206E-3
8.440308000E0,-6.462313468E-5,4.598358646E-5,-1.265198225E-3,1.267681817E-3
8.450357000E0,-1.775150304E-5,-1.851790585E-4,1.099156216E-3,1.114787328E-3
8.460406000E0,1.360098831E-3,3.084634431E-3,2.591112861E-4,3.381120681E-3
8.470455000E0,-3.416611289E-4,-1.389742363E-3,5.256937584E-4,1.524621294E-3
8.480504000E0,-1.779706217E-4,-3.699022345E-4,5.445600254E-4,6.819434189E-4
8.490553000E0,1.038827701E-3,7.321140729E-4,3.549428657E-4,1.319522052E-3
8.500602000E0,1.783765154E-3,-2.512390260E-3,7.255938835E-4,3.165503029E-3
8.510651000E0,-7.662117132E-4,-1.470561605E-3,-4.299516440E-4,1.713035388E-3
8.520700000E0,1.765935333E-3,5.186134949E-4,-2.770318533E-4,1.861245337E-3
8.530749000E0,-5.558085395E-4,-1.418836415E-3,-4.290983779E-4,1.583080959E-3
8.540798000E0,-2.034583827E-3,-2.027868759E-3,-1.003777375E-3,3.042918348E-3
8.550847000E0,1.027518767E-3,9.189192206E-4,3.696419299E-6,1.378485043E-3
8.560896000E0,1.805544365E-3,-1.893639565E-4,6.686861161E-5,1.816678445E-3
8.570945000E0,-1.500237500E-3,7.113171741E-4,-1.988559030E-3,2.590569763E-3
8.580995000E0,-4.132642352E-4,9.290687740E-4,1.213620184E-3,1.583297213E-3
8.591044000E0,1.868798397E-3,-5.311425775E-4,2.618437633E-3,3.260480873E-3
8.601093000E0,8.786745602E-4,-1.046541613E-3,-8.605471812E-4,1.614886925E-3
8.611142000E0,-5.799387582E-4,2.494131215E-3,-2.143658232E-3,3.339504469E-3
8.621191000E0,1.810548361E-3,1.403835602E-3,-1.314253197E-3,2.641231007E-3
8.631240000E0,1.908020116E-3,2.213170752E-3,-1.274572103E-3,3.187977351E-3
8.641289000E0,1.577254734E-3,-1.660565846E-3,-1.088579884E-3,2.535787370E-3
8.651338000E0,-5.689867539E-4,-2.131378278E-4,3.093115520E-3,3.152227352E-3
8.661387000E0,1.058170921E-3,-1.174028032E-3,-4.936758778E-4,1.655833141E-3
8.671436000E0,-7.466534153E-4,4.262654111E-4,4.215212539E-5,8.607963318E-4
8.681485000E0,1.878243987E-3,1.643937547E-3,-1.001626719E-3,2.689532900E-3
8.691534000E0,-2.578775457E-4,-9.057731368E-4,-3.276870120E-5,9.423373025E-4
8.701583000E0,8.991196519E-4,4.435265437E-4,1.420224202E-3,1.738438589E-3
8.711632000E0,-9.203520603E-4,-1.069149002E-3,-5.387971760E-4,1.510109235E-3
8.721681000E0,9.860810824E-4,1.883693039E-3,-2.291775309E-5,2.126306796E-3
8.731730000E0,2.068519825E-5,1.368903555E-3,-2.654653508E-3,2.986889698E-3
8.741779000E0,-2.903842833E-4,-1.035832800E-3,1.139197033E-3,1.566857524E-3
8.751828000E0,9.146961384E-4,1.386213116E-4,-1.059242408E-3,1.406370994E-3
8.761877000E0,-7.348458166E-4,-7.340963930E-4,3.439855063E-4,1.094176365E-3
8.771926000E0,3.165701637E-4,-1.511739567E-3,1.097393688E-3,1.894688917E-3
8.781975000E0,1.386256889E-3,-5.234172568E-4,2.462230856E-3,2.873717901E-3
8.792024000E0,-2.105680062E-3,1.102176029E-3,-1.420125365E-3,2.768652483E-3
8.802073000E0,4.233508662E-4,7.073837332E-4,1.168715651E-3,1.430214661E-3
8.812122000E0,7.993892068E-4,-2.590674907E-3,7.495540194E-5,2.712238539E-3
8.822171000E0,-4.574505729E-4,-4.608305171E-4,-2.299324609E-3,2.389250814E-3
8.832220000E0,-1.799683669E-3,2.747345716E-4,1.416850253E-3,2.306903776E-3
8.842269000E0,-1.350918319E-4,2.139850985E-3,-1.472151605E-3,2.600854166E-3
8.852318000E0,1.361871022E-3,-2.308426425E-3,-1.292388304E-3,2.975532350E-3
8.862367000E0,-1.927592792E-3,1.035148278E-3,3.475616686E-4,2.215388237E-3
8.872416000E0,-8.671219693E-4,3.467211500E-4,-7.126427372E-4,1.174723685E-3
8.882465000E0,-1.336367102E-3,2.226434182E-3,6.663755048E-4,2.680847350E-3
8.892515000E0,-2.781930845E-3,-8.061076514E-4,1.366727520E-4,2.899591043E-3
8.902564000E0,2.956495155E-3,-3.124371869E-3,3.499101149E-4,4.315669156E-3
8.912613000E0,-1.904040109E-3,-1.080757938E-4,3.459153231E-4,1.938222517E-3
8.922662000E0,1.592079294E-3,-1.068627462E-4,-1.524689491E-3,2.206992109E-3
8.932711000E0,-8.068961324E-4,1.375985332E-3,3.280716483E-4,1.628510979E-3
8.942760000E0,-8.260185714E-4,1.529348083E-3,4.910980351E-5,1.738857099E-3
8.952809000E0,2.384468971E-4,-3.524413332E-4,-1.393790822E-3,1.457300474E-3
8.962858000E0,4.594933707E-4,-5.677207373E-4,-1.107009361E-3,1.326239314E-3
8.972907000E0,-1.102450537E-3,1.074650791E-3,1.027514227E-3,1.850961100E-3
8.982956000E0,-1.033061417E-3,7.502753288E-4,1.222805819E-3,1.767875287E-3
8.993005000E0,-6.229346036E-4,-2.582138404E-3,1.940261340E-3,3.289392091E-3
9.003054000E0,1.012062654E-3,-5.040313117E-4,2.228203230E-4,1.152374624E-3
9.013102542E0,-1.245765365E-3,-2.680100035E-3,2.321413485E-4,2.964583807E-3
9.023151542E0,1.007399289E-3,-5.485485308E-4,-5.136900581E-4,1.256835826E-3
9.033200542E0,1.346685924E-3,2.536190674E-3,-5.421859096E-4,2.922292195E-3
9.043249542E0,-8.210481610E-5,-1.372123137E-3,1.215521363E-3,1.834926507E-3
9.053298542E0,6.960708415E-4,-3.372188658E-4,1.591825974E-3,1.769785612E-3
9.063347542E0,-7.588496665E-4,2.810596488E-4,-1.439774875E-3,1.651604987E-3
9.073396542E0,-1.637692796E-3,1.191860531E-3,1.546960324E-3,2.548657581E-3
9.083445542E0,9.534950950E-4,1.300947275E-3,-7.334003458E-4,1.771861387E-3
9.093494542E0,9.963719640E-4,3.629820421E-4,-3.717430518E-4,1.123701896E-3
9.103543542E0,-1.450978452E-4,1.331255771E-3,-7.906651590E-4,1.555135591E-3
9.113592542E0,-1.759772538E-3,8.500223048E-4,-2.464195713E-3,3.145091067E-3
9.123641542E0,-9.235937614E-5,-1.227171160E-4,-1.211885712E-3,1.221579602E-3
9.133690542E0,2.324725501E-3,-8.415044285E-4,3.940004390E-4,2.503540434E-3
9.143739542E0,-5.172591773E-4,-1.029909588E-3,-8.577731787E-4,1.436678685E-3
9.153788542E0,-1.042168122E-3,-5.731778219E-4,-9.467227501E-4,1.520174719E-3
9.163837542E0,1.575538656E-3,1.037581358E-3,-1.445353264E-3,2.376540172E-3
9.173886542E0,1.956903376E-3,-5.680383183E-4,7.387050427E-4,2.167446307E-3
9.183936542E0,1.071123756E-3,8.964696899E-4,-1.018364914E-3,1.728592231E-3
9.193985542E0,1.219731639E-4,-2.553476952E-4,1.913242741E-3,1.934057311E-3
9.204034542E0,6.142322090E-4,4.421449266E-4,-1.312383218E-3,1.514966354E-3
9.214083542E0,-7.820631727E-4,-3.104647622E-4,-9.451332735E-4,1.265420120E-3
9.224132542E0,-1.009216183E-3,-5.637528375E-5,-1.101845293E-3,1.495245307E-3
9.234181542E0,1.755145029E-3,3.984924406E-4,1.893411973E-3,2.612343621E-3
9.244230542E0,-1.432376448E-4,2.153115347E-3,-1.207909198E-3,2.472947098E-3
9.254279542E0,1.609654864E-3,-1.545482781E-3,1.460844418E-3,2.667128085E-3
9.264328542E0,2.484643366E-3,-6.956714205E-4,4.812860861E-4,2.624699541E-3
9.274377542E0,1.313917805E-3,-6.352174096E-4,1.505215187E-4,1.467152985E-3
9.284426542E0,1.393542858E-3,1.377968118E-3,9.630011627E-4,2.183604605E-3
9.294475542E0,-9.873231174E-4,7.609138265E-4,-2.604549518E-4,1.273433772E-3
9.304524542E0,1.957925269E-3,2.722577658E-3,-2.961678430E-3,4.474085335E-3
9.314573542E0,2.683104016E-3,-1.855939627E-4,2.015503123E-3,3.360914328E-3
9.324622542E0,4.481194192E-4,1.423475798E-3,-2.686906373E-5,1.492587119E-3
9.334671542E0,-7.172799087E-4,1.233858988E-3,-1.533153001E-3,2.094625645E-3
9.344720542E0,8.477458032E-4,3.370389808E-3,-1.406453783E-3,3.749174929E-3
9.354769542E0,-9.456269327E-4,-1.920512412E-3,-1.414975850E-3,2.566073825E-3
9.364818542E0,-7.438723696E-5,-4.952782765E-4,-2.625959925E-3,2.673293766E-3
9.374867542E0,-2.845106064E-4,-1.715804916E-3,2.039365936E-3,2.680288458E-3
9.384916542E0,9.764489369E-4,2.214098815E-3,-1.987272408E-3,3.131283716E-3
9.394965542E0,1.456350554E-3,2.918289974E-4,-1.087123994E-3,1.840641105E-3
9.405014542E0,-8.850903832E-4,2.272563055E-3,-5.333538866E-4,2.496476356E-3
9.415063542E0,4.163996782E-3,2.754582092E-4,1.005154336E-3,4.292444719E-3
9.425112542E0,5.928798346E-4,3.579552285E-4,8.248279337E-4,1.077023474E-3
9.435161542E0,-2.406638581E-3,1.442926936E-3,2.106341068E-3,3.508649327E-3
9.445210542E0,-1.626561861E-4,2.226107754E-4,-4.399969475E-4,5.192397385E-4
9.455260542E0,8.232460241E-4,5.230153911E-4,1.616762253E-3,1.888173535E-3
9.465309542E0,2.969134366E-4,1.155031845E-3,8.542963769E-5,1.195639735E-3
9.475358542E0,3.946514626E-4,6.860489957E-4,9.208754636E-5,7.968018057E-4
9.485407542E0,-1.888854778E-3,1.293909736E-3,5.112951621E-4,2.345932122E-3
9.495456542E0,-6.214563036E-4,2.086733002E-3,-6.996442098E-4,2.286955308E-3
9.505505542E0,-2.838491462E-3,-8.768872358E-4,2.173468238E-4,2.978792481E-3
9.515554542E0,7.056432660E-4,2.741310745E-4,-1.203183318E-3,1.421523957E-3
9.525603542E0,-3.582991776E-4,-1.939623617E-4,-1.501744846E-3,1.556032545E-3
9.535652542E0,4.891186836E-4,-5.489620380E-4,6.287839497E-4,9.674531829E-4
9.545701542E0,2.089078072E-3,-1.410766970E-3,-9.882234735E-5,2.522751770E-3
9.555750542E0,1.029672683E-3,-8.429810405E-4,4.681646824E-4,1.410681055E-3
9.565799542E0,-1.141719986E-4,-1.102513634E-4,-1.047669793E-4,1.901755198E-4
9.575848542E0,1.562820515E-3,7.203882560E-4,3.088629339E-3,3.535675097E-3
9.585897542E0,1.778144157E-3,2.326104324E-3,-9.398895199E-4,3.075052890E-3
9.595946542E0,1.652442967E-3,7.172888145E-4,-1.835244242E-3,2.571612807E-3
9.605995542E0,-1.636312110E-3,1.234382391E-3,-1.875271555E-3,2.778103780E-3
9.616044542E0,-5.239098682E-4,4.189223982E-4,3.655122127E-4,7.639219223E-4
9.626093542E0,-5.187478382E-5,-1.121955924E-3,-1.841928111E-3,2.157353762E-3
9.636142542E0,2.166804858E-3,9.782128036E-4,9.632052388E-5,2.379332096E-3
9.646191542E0,4.980462836E-4,-1.608851366E-3,-7.358298171E-4,1.837905965E-3
9.656240542E0,-2.969073248E-4,4.420490004E-4,7.345014019E-4,9.072230088E-4
9.666289542E0,-1.057320507E-3,1.101241447E-3,2.197462600E-4,1.542383804E-3
9.676338542E0,1.157630584E-3,1.812305301E-3,-1.175217563E-3,2.450652035E-3
9.686387542E0,-2.360748127E-3,2.972297370E-4,-2.162635559E-3,3.215349094E-3
9.696437542E0,1.208952861E-3,3.494280390E-4,-4.662019783E-4,1.342017608E-3
9.706486542E0,-9.616988245E-4,1.000752673E-4,-1.728598727E-4,9.822220848E-4
9.716535542E0,-1.635494991E-4,-3.686140757E-3,1.037280541E-3,3.832797026E-3
9.726584542E0,7.079992210E-4,2.240380272E-4,-2.529305057E-4,7.844933240E-4
9.736633542E0,1.503485488E-3,4.107877612E-5,-9.328355081E-4,1.769841282E-3
9.746682542E0,5.824724212E-6,1.014550216E-3,-9.836925892E-5,1.019324571E-3
9.756731542E0,-4.168189189E-4,1.241984311E-3,-1.074417843E-3,1.694295353E-3
9.766780542E0,1.991688740E-3,-1.636617817E-3,1.047601574E-3,2.782590694E-3
9.776829542E0,-1.233938674E-4,-1.086409204E-3,1.549074776E-3,1.896086407E-3
9.786878542E0,-2.578772255E-4,-1.624582335E-3,1.055763452E-3,1.954585607E-3
9.796927542E0,-3.538891906E-3,1.711873338E-4,-1.179960323E-3,3.734349661E-3
9.806976542E0,-2.849899931E-3,3.647594713E-4,2.196777146E-3,3.616740096E-3
9.817025542E0,4.228586331E-4,7.306779735E-4,-1.125250012E-3,1.406729296E-3
9.827074542E0,2.294007136E-4,3.466042690E-4,4.730097717E-4,6.296804354E-4
9.837123542E0,2.345814835E-3,9.050690569E-4,-1.736615086E-3,3.055786183E-3
9.847172542E0,-3.307306673E-3,-3.045299090E-4,-3.461732995E-4,3.339289124E-3
9.857221542E0,9.558814345E-4,-1.436905935E-3,2.751421416E-4,1.747601551E-3
9.867270542E0,-1.721347915E-3,-2.938043326E-5,3.883781610E-4,1.764862445E-3
9.877319542E0,4.539220536E-4,-1.100503840E-3,-7.064474048E-4,1.384276659E-3
9.887368542E0,-2.582206391E-3,6.098542362E-4,-3.650540020E-5,2.653496689E-3
9.897417542E0,-9.129369864E-4,5.187741481E-4,-2.428024076E-3,2.645350916E-3
9.907466542E0,-1.418359578E-3,4.903231747E-4,-1.166590606E-3,1.900814128E-3
9.917515542E0,-2.167506842E-3,7.891301066E-4,-9.191829595E-4,2.483084684E-3
9.927564542E0,4.680370330E-5,-6.412342191E-5,-1.615680289E-3,1.617629499E-3
9.937614542E0,3.754377831E-4,1.388094388E-4,-7.730560610E-4,8.705384901E-4
9.947663542E0,1.586456317E-3,1.040839590E-3,-1.658032415E-4,1.904647320E-3
9.957712542E0,5.211919779E-4,-1.593559515E-3,1.167581649E-4,1.680686013E-3
9.967761542E0,-9.095412679E-4,-1.237978693E-3,1.223829808E-3,1.964081455E-3
9.977810542E0,-1.002751873E-3,2.220402472E-3,-1.283536432E-3,2.753754569E-3
9.987859542E0,-7.437262684E-5,-1.353060361E-3,-1.439460437E-3,1.976954723E-3
9.997908542E0,-7.625333965E-4,8.560316637E-4,1.239679521E-3,1.688506057E-3
1.000795688E1,-1.166285481E-3,-4.635890946E-4,-5.312001449E-4,1.362831709E-3
1.001800588E1,-1.182530774E-3,-1.836908050E-4,-7.130940212E-4,1.393062966E-3
1.002805488E1,-2.519592817E-4,2.105691470E-3,-5.120344576E-4,2.181650598E-3
1.003810388E1,-1.516161836E-3,1.327781938E-3,6.118194433E-4,2.106199093E-3
1.004815288E1,1.821285114E-3,-4.631006159E-4,8.847243153E-4,2.077084197E-3
1.005820187E1,1.039647264E-3,-1.266043633E-3,-8.721631020E-4,1.855909856E-3
1.006825088E1,-1.204580534E-3,-1.438517123E-3,1.195516670E-3,2.224770974E-3
1.007829988E1,8.572387742E-4,-2.588736359E-3,1.747270580E-4,2.732570914E-3
1.008834888E1,-1.925728982E-3,-1.959204674E-4,-2.358140424E-3,3.050843031E-3
1.009839788E1,-2.237026929E-4,-4.249522462E-4,2.392404713E-4,5.365289456E-4
1.010844688E1,1.133815385E-3,6.379154511E-4,-6.319920067E-4,1.446335835E-3
1.011849588E1,1.495472621E-3,3.447015770E-4,3.459206782E-4,1.573187418E-3
1.012854488E1,6.968220696E-4,-5.904273130E-4,-3.172982251E-4,9.668730901E-4
1.013859388E1,1.179919462E-3,1.970259473E-5,-4.272628576E-5,1.180857173E-3
1.014864287E1,4.209095205E-4,-2.015917562E-4,7.736394182E-4,9.035054012E-4
1.015869288E1,1.408676035E-3,-3.089173697E-4,-3.752483171E-4,1.490170934E-3
1.016874188E1,-3.190459451E-3,1.962580718E-4,-5.595106632E-5,3.196979709E-3
1.017879088E1,-9.739104426E-4,-2.724430524E-3,-1.025341684E-3,3.069584467E-3
1.018883988E1,-2.607133356E-4,5.664238706E-4,4.051605938E-4,7.436145180E-4
1.019888888E1,2.040082472E-4,-4.953783937E-4,-7.115028566E-4,8.906488830E-4
1.020893788E1,8.863444673E-4,1.311685424E-3,1.374701969E-5,1.583134280E-3
1.021898687E1,-5.139455898E-4,-3.575836308E-4,-1.330084051E-3,1.470078129E-3
1.022903588E1,-7.077077171E-4,1.392958220E-3,-7.681816351E-4,1.741058827E-3
1.023908488E1,6.518360460E-4,-2.300846390E-3,-1.611871063E-3,2.883905801E-3
1.024913388E1,2.533451188E-4,6.583835930E-4,5.521889543E-4,8.958601152E-4
1.025918288E1,1.635792083E-3,-1.648712903E-3,6.775988732E-5,2.323501964E-3
1.026923188E1,1.768775983E-4,-3.315708600E-4,-1.101850998E-3,1.164173759E-3
1.027928088E1,-7.110203151E-4,-3.782426938E-5,4.560982343E-4,8.455803706E-4
1.028932988E1,5.962605355E-4,-1.596426591E-4,1.598954899E-3,1.713963003E-3
1.029937888E1,-1.187524758E-3,-5.380776711E-4,-6.777815288E-4,1.469397983E-3
1.030942787E1,8.346445393E-4,-9.233178571E-4,-1.743865199E-3,2.142478286E-3
1.031947688E1,2.277101594E-4,8.527445607E-4,-9.108284721E-4,1.268319245E-3
1.032952588E1,2.994301263E-3,-1.356844325E-3,9.139934555E-4,3.412074239E-3
1.033957488E1,-3.295019967E-3,1.619771123E-3,-1.084975200E-3,3.828574965E-3
1.034962388E1,-1.911521191E-3,2.435194328E-4,-2.320075408E-3,3.015951736E-3
1.035967288E1,-3.466477501E-4,2.248346806E-3,1.486750552E-4,2.279765842E-3
1.036972188E1,-4.720724537E-4,4.704697058E-4,1.123368507E-3,1.306197132E-3
1.037977187E1,-3.244156949E-3,-7.196972147E-4,-1.058293041E-3,3.487477964E-3
1.038982088E1,3.788942122E-4,1.845750958E-4,1.552561298E-3,1.608749631E-3
1.039986988E1,-8.778515039E-4,8.881823160E-4,3.850316280E-4,1.306805435E-3
1.040991888E1,-1.518562494E-4,6.428672932E-4,1.283677295E-3,1.443664114E-3
1.041996788E1,6.143351784E-4,-7.462375797E-4,-1.323253964E-4,9.755963547E-4
1.043001688E1,1.716697356E-3,-5.332748406E-4,5.061079282E-4,1.867505583E-3
1.044006588E1,-1.056452165E-3,1.492933370E-4,2.837340580E-4,1.104031111E-3
1.045011488E1,-1.349874772E-3,-1.358035952E-3,-2.363983775E-3,3.042177318E-3
1.046016388E1,-1.864397433E-3,6.782077253E-5,-3.929782542E-4,1.906570049E-3
1.047021287E1,-1.463449735E-4,2.162458841E-3,3.450860386E-4,2.194704869E-3
1.048026188E1,-1.156482031E-3,-1.214696094E-3,-1.238966943E-4,1.681751373E-3
1.049031088E1,2.444881247E-3,-1.571466215E-3,7.528933347E-4,3.002298911E-3
1.050035988E1,1.891476335E-3,8.272430860E-4,1.619485905E-3,2.623880418E-3
1.051040888E1,-1.815222495E-4,3.732237965E-4,-6.889621727E-5,4.207053816E-4
1.052045788E1,2.304687951E-4,8.824202232E-4,1.513820374E-3,1.767323808E-3
1.053050688E1,6.998141762E-4,1.090335194E-3,-9.075070848E-4,1.581815358E-3
1.054055587E1,-2.402817190E-4,-1.514502801E-3,1.708249678E-3,2.295554617E-3
1.055060488E1,-1.070836908E-3,8.926801383E-4,3.198150080E-4,1.430332532E-3
1.056065387E1,1.287125982E-3,-1.292177476E-3,-1.964378171E-3,2.680521875E-3
1.057070288E1,3.009302309E-4,1.027895603E-3,6.054893602E-4,1.230343749E-3
1.058075188E1,-1.583256293E-3,-1.481068786E-3,1.525078784E-3,2.650684918E-3
1.059080188E1,-1.674346626E-3,-1.033621840E-3,6.212668959E-4,2.063439674E-3
1.060085088E1,-3.728597367E-4,-9.112898260E-5,7.842523046E-4,8.731440614E-4
1.061089988E1,-8.011975442E-4,1.763162669E-3,7.011705311E-4,2.059684494E-3
1.062094888E1,-1.575910952E-3,4.896391183E-4,-3.276086063E-4,1.682429551E-3
1.063099787E1,-9.700617520E-4,-1.565346960E-3,1.259568264E-3,2.231108047E-3
1.064104688E1,8.989446796E-4,9.540035389E-4,-6.339391693E-4,1.456057403E-3
1.065109588E1,-3.678382200E-4,2.247272059E-4,2.865504939E-6,4.310632022E-4
1.066114488E1,2.095350937E-4,-1.078890171E-3,4.279060522E-4,1.179411949E-3
1.067119388E1,-2.646207868E-4,2.519682050E-3,-9.212247096E-5,2.535213668E-3
1.068124288E1,-7.016455056E-4,1.134039368E-3,-1.696204417E-4,1.344292676E-3
1.069129188E1,1.094684820E-3,4.991334863E-4,-3.550811671E-4,1.254412901E-3
1.070134087E1,-8.393027238E-4,3.176408820E-3,1.413257793E-3,3.576492645E-3
1.071138988E1,-3.193151904E-3,6.636446342E-4,6.371408817E-4,3.323039540E-3
1.072143887E1,8.218297735E-4,2.050483599E-4,-9.660820942E-4,1.284820462E-3
1.073148788E1,2.248140518E-3,-6.347526796E-4,2.498888061E-4,2.349359735E-3
1.074153688E1,1.381015289E-3,1.243575010E-3,2.863741829E-4,1.880343641E-3
1.075158588E1,1.759171835E-3,1.464443281E-3,2.052937052E-4,2.298135152E-3
1.076163488E1,2.179418691E-3,4.045055248E-4,1.495861448E-3,2.674152580E-3
1.077168388E1,6.284588017E-4,-2.397065982E-4,-6.820153212E-4,9.578959322E-4
1.078173288E1,-9.465346811E-4,-2.181348391E-4,-1.095870510E-3,1.464391643E-3
1.079178287E1,-1.378527377E-3,9.480863810E-7,-6.775088841E-4,1.536019829E-3
1.080183188E1,-2.009430435E-3,-3.367289901E-5,3.837608383E-4,2.046024662E-3
1.081188088E1,8.602234302E-4,1.850359607E-3,-9.341820260E-4,2.244217254E-3
1.082192988E1,-1.053790445E-3,2.310820390E-3,-2.542770235E-4,2.552454109E-3
1.083197888E1,-1.683553448E-3,2.189507708E-3,-5.457788357E-4,2.815345583E-3
1.084202788E1,1.192660537E-3,1.292554662E-3,-2.273399150E-5,1.758878490E-3
1.085207688E1,-1.526603824E-3,-7.267314941E-4,-2.887625014E-4,1.715238084E-3
1.086212587E1,-1.722878893E-3,2.402216196E-3,8.179922588E-6,2.956183560E-3
1.087217488E1,-5.258811871E-4,1.248273067E-3,2.527358010E-4,1.377901324E-3
1.088222387E1,-7.554456824E-4,-8.843862452E-4,3.628026228E-3,3.809909648E-3
1.089227288E1,9.533660486E-4,1.486841124E-3,8.773978334E-4,1.972163864E-3
1.090232188E1,2.084798471E-4,-5.592778325E-5,8.169440553E-4,8.449789068E-4
1.091237088E1,3.770563984E-3,-4.603015259E-4,8.759884513E-4,3.898254227E-3
1.092241988E1,2.424080885E-4,-6.448584609E-4,8.560147253E-4,1.098801768E-3
1.093246888E1,1.027441118E-3,1.062680967E-3,-5.095298402E-4,1.563504636E-3
1.094251788E1,-9.209276177E-4,-1.373578794E-3,1.161071006E-3,2.020621752E-3
1.095256687E1,-9.506426286E-4,1.468339469E-3,-4.989729496E-5,1.749923411E-3
1.096261588E1,-2.872492187E-4,1.725601498E-3,1.767999493E-6,1.749347241E-3
1.097266488E1,-9.288211586E-4,-1.430246048E-4,-3.461330780E-4,1.001485342E-3
1.098271488E1,-6.401344435E-4,-1.026661601E-3,1.661623945E-3,2.055431897E-3
1.099276388E1,8.583314484E-4,-2.243668307E-3,-1.360620605E-3,2.760809442E-3
1.100281288E1,1.116125379E-3,8.953996003E-4,1.215188764E-3,1.877274630E-3
1.101286275E1,-1.376861939E-3,1.291898079E-4,-2.892188495E-4,1.412829200E-3
1.102291175E1,1.140091568E-3,-5.496498197E-4,1.363272546E-3,1.860224648E-3
1.103296075E1,9.836561512E-4,-1.482793130E-3,-1.094599254E-3,2.089115224E-3
1.104300975E1,-8.651102544E-4,-1.659094356E-3,2.898544539E-3,3.450010185E-3
1.105305875E1,-2.213701373E-5,3.816806711E-4,1.998102525E-4,4.313865078E-4
1.106310775E1,3.922508331E-4,-4.281862639E-4,-1.150146127E-3,1.288425514E-3
1.107315675E1,-1.574292313E-3,7.273829542E-4,-1.515839249E-3,2.303313022E-3
1.108320575E1,-9.742822149E-4,2.275076695E-4,-2.068955218E-4,1.021661065E-3
1.109325475E1,4.877352039E-4,6.556743756E-5,-1.027757302E-3,1.139504186E-3
1.110330375E1,-5.769965355E-4,-1.141909976E-3,1.455107820E-3,1.937581524E-3
1.111335275E1,4.404800711E-5,1.368707046E-3,-1.368807047E-3,1.936215880E-3
1.112340175E1,1.728763687E-3,1.370304264E-3,-6.436283002E-4,2.297958888E-3
1.113345075E1,-1.023134217E-3,-2.538003027E-4,-7.272706716E-4,1.280679839E-3
1.114349975E1,2.995309420E-3,-1.489240676E-3,3.968495876E-4,3.368561400E-3
1.115354875E1,5.353750894E-4,4.418878816E-4,-6.583696231E-4,9.567350453E-4
1.116359775E1,1.062680967E-3,1.127651893E-3,3.544305218E-4,1.589500118E-3
1.117364775E1,-2.287965501E-3,-1.804751810E-3,-1.990047283E-3,3.528767974E-3
1.118369675E1,1.206368208E-3,-6.092586555E-4,-1.510678325E-3,2.026985289E-3
1.119374575E1,2.301720902E-3,-4.304503091E-4,-1.344203367E-3,2.700016532E-3
1.120379475E1,-4.770213854E-4,1.825247426E-3,-1.182016800E-3,2.226261728E-3
1.121384375E1,-2.137912204E-3,3.441032022E-4,2.629635623E-3,3.406473120E-3
1.122389275E1,2.584405011E-3,-4.087723792E-4,-2.460457035E-4,2.628075837E-3
1.123394175E1,1.426281815E-4,-4.477850161E-4,5.226414651E-4,7.028572543E-4
1.124399075E1,6.787225138E-4,3.855616786E-3,-2.571320510E-4,3.923335563E-3
1.125403975E1,-9.258702630E-4,1.095856074E-3,1.373524661E-3,1.986128464E-3
1.126408875E1,8.544529555E-4,7.709506899E-4,-7.519442006E-4,1.374727209E-3
1.127413775E1,-6.560558686E-4,1.533665229E-3,-1.045945450E-3,1.968893146E-3
1.128418675E1,-3.446249757E-3,4.787873477E-4,1.676570391E-4,3.483386799E-3
1.129423575E1,-2.182362601E-3,-5.055936053E-4,1.440788037E-3,2.663494243E-3
1.130428475E1,-1.529621542E-3,-1.365262084E-3,8.322558133E-4,2.212765771E-3
1.131433375E1,-1.325134886E-3,7.508760318E-4,8.068379248E-4,1.723596449E-3
1.132438275E1,-3.602716024E-4,-3.335629590E-4,-1.509579481E-3,1.587416166E-3
1.133443175E1,-3.917886643E-4,3.641340882E-4,-7.972982712E-4,9.600919356E-4
1.134448075E1,-2.820664668E-4,1.257092226E-3,-1.934734406E-3,2.324443929E-3
1.135453075E1,3.134537837E-4,-1.352783758E-3,-4.144886043E-5,1.389242664E-3
1.136457975E1,-4.990766174E-4,4.831994884E-4,-7.192234043E-4,9.999207573E-4
1.137462875E1,-5.313908332E-4,4.869513214E-4,-9.591196431E-5,7.271154736E-4
1.138467775E1,-1.610503765E-3,3.651851788E-3,1.429813099E-3,4.239588348E-3
1.139472675E1,-2.950985450E-3,-1.907336526E-3,-6.738287630E-4,3.577749705E-3
1.140477575E1,6.994094001E-4,-8.561867289E-4,5.294790026E-5,1.106811955E-3
1.141482475E1,1.249001361E-3,-6.437110715E-4,2.481389325E-3,2.851606797E-3
1.142487375E1,-1.871956978E-3,1.448509283E-4,-8.363768575E-4,2.055415035E-3
1.143492275E1,-8.472717600E-4,-1.571739092E-3,-6.091807736E-4,1.886619841E-3
1.144497175E1,1.681133406E-3,2.402672544E-5,7.895114832E-4,1.857448571E-3
1.145502075E1,-2.055306919E-3,-3.796564415E-4,4.427018575E-4,2.136448099E-3
1.146506975E1,-1.203894266E-3,1.987094525E-3,-2.647097688E-3,3.522077828E-3
1.147511875E1,8.942442946E-6,-1.359477639E-3,1.395379193E-3,1.948163882E-3
1.148516775E1,2.830827842E-3,-1.951437443E-4,1.005226048E-3,3.010339974E-3
1.149521675E1,-1.691333251E-3,-4.214127548E-4,2.500896342E-3,3.048389639E-3
1.150526575E1,-2.671909286E-3,-1.352986787E-3,-6.664011744E-4,3.068185620E-3
1.151531475E1,-1.389382523E-3,-1.714556478E-3,4.776846617E-5,2.207344454E-3
1.152536375E1,1.515593613E-3,2.431186847E-3,-6.662250962E-4,2.941351622E-3
1.153541275E1,-2.421381650E-4,1.273862086E-3,-8.519020048E-4,1.551480754E-3
1.154546275E1,1.814088551E-3,1.308749430E-3,1.432557474E-3,2.656306319E-3
1.155551175E1,4.622347478E-4,7.143891416E-4,-1.145913848E-3,1.427281106E-3
1.156556075E1,-2.731694374E-3,4.463320598E-3,-7.186096627E-5,5.233407008E-3
1.157560975E1,-1.935648150E-3,5.543231964E-6,-1.617028378E-3,2.522210392E-3
1.158565875E1,9.277827339E-4,2.287872601E-3,-2.091071103E-3,3.235385634E-3
1.159570775E1,7.959951763E-4,1.379885711E-3,1.592597109E-3,2.252567080E-3
1.160575675E1,4.247504985E-4,-5.575641990E-4,-9.709618171E-4,1.197521470E-3
1.161580575E1,-9.611790301E-4,9.646927938E-4,2.615039703E-3,2.948377513E-3
1.162585475E1,-6.139029283E-4,-1.426026691E-3,1.011284301E-3,1.852869360E-3
1.163590375E1,5.604018224E-4,-2.476437949E-3,1.127088908E-4,2.541554330E-3
1.164595275E1,4.021712113E-3,-6.707618013E-5,1.923374366E-4,4.026867421E-3
1.165600175E1,6.704482948E-4,8.977372199E-4,4.821266048E-4,1.219786496E-3
1.166605075E1,3.024682868E-3,3.224946558E-4,1.533009927E-3,3.406292514E-3
1.167609975E1,9.625270031E-4,-4.713879898E-4,4.785673227E-4,1.173751060E-3
1.168614875E1,7.036799798E-5,-1.095899381E-3,-7.837709854E-4,1.349164210E-3
1.169619775E1,-2.110799309E-3,2.569705248E-5,4.199435934E-4,2.152321231E-3
1.170624675E1,2.326559741E-3,-4.518078640E-4,8.652241668E-4,2.523018714E-3
1.171629675E1,1.102082664E-3,4.330356605E-4,-2.807585057E-3,3.047070714E-3
1.172634575E1,3.902197059E-4,8.101393469E-4,-9.510953678E-4,1.308884861E-3
1.173639475E1,-2.120024525E-3,2.997995354E-3,1.216811361E-4,3.673865325E-3
1.174644375E1,-1.705905306E-4,-2.169725485E-4,1.445272239E-3,1.471390519E-3
1.175649275E1,-1.047342084E-3,-2.766401507E-3,1.812406117E-4,2.963570633E-3
1.176654175E1,-4.306406481E-5,1.085062046E-3,-8.057269151E-4,1.352187124E-3
1.177659075E1,9.156391025E-4,1.219373196E-3,6.556641310E-4,1.659867890E-3
1.178663975E1,1.308055362E-4,2.957889810E-4,-7.598059601E-4,8.257761843E-4
1.179668875E1,-7.683313452E-4,1.759713981E-3,2.972993534E-4,1.943016536E-3
1.180673775E1,-1.486319583E-3,7.682195865E-4,5.026290892E-4,1.746981178E-3
1.181678675E1,-3.217347548E-4,1.172199845E-3,1.323102508E-3,1.796709764E-3
1.182683575E1,-4.397127777E-4,9.841332212E-5,-1.443655579E-3,1.512340550E-3
1.183688475E1,1.623761840E-3,7.751346566E-4,1.396275940E-3,2.277503623E-3
1.184693375E1,6.224133540E-4,-1.236350741E-3,5.041168770E-4,1.473124355E-3
1.185698275E1,-1.440862194E-3,4.517911002E-4,-1.506999834E-4,1.517534034E-3
1.186703175E1,9.557164740E-4,-8.020251989E-4,-3.317949595E-4,1.291017542E-3
1.187708075E1,-8.327784599E-4,-1.782293431E-3,-1.326627913E-3,2.372768733E-3
1.188712975E1,-4.442232894E-4,2.492778003E-5,-1.066703466E-3,1.155773338E-3
1.189717975E1,-7.072234876E-4,-1.139331143E-3,-2.346382011E-3,2.702544922E-3
1.190722875E1,-1.232132548E-3,3.520390019E-4,-1.503757900E-3,1.975694788E-3
1.191727775E1,-2.105087740E-3,9.164819494E-4,-6.337970844E-4,2.381812818E-3
1.192732675E1,-1.796223805E-4,-7.493249141E-4,1.010971144E-3,1.271146994E-3
1.193737575E1,7.564921980E-4,1.038103830E-3,-4.281341098E-4,1.353971500E-3
1.194742475E1,1.737925631E-4,2.384332009E-3,-7.533060852E-4,2.506534069E-3
1.195747375E1,-1.244754647E-3,-1.285233069E-3,-9.323862614E-4,2.017568416E-3
1.196752275E1,1.957430271E-3,6.974907592E-4,4.228963517E-4,2.120581984E-3
1.197757175E1,-1.376674743E-3,-4.609306343E-4,1.274785260E-3,1.932037230E-3
1.198762075E1,-2.845123818E-4,9.274017066E-5,1.927430276E-4,3.559464978E-4
1.199766975E1,-3.846464911E-3,6.903130561E-4,-2.443485428E-3,4.608952752E-3
1.200771875E1,1.808225061E-3,-1.118505839E-3,-4.921873333E-4,2.182425612E-3
1.201776779E1,-9.010079084E-4,1.489724964E-4,1.871282235E-3,2.082235639E-3
1.202781679E1,-2.336451784E-3,-8.835350163E-4,2.045985544E-3,3.228884933E-3
1.203786579E1,1.302777673E-4,1.165021677E-3,6.035632687E-4,1.318535712E-3
1.204791479E1,7.449353579E-4,1.248911023E-3,1.334334607E-3,1.973615027E-3
1.205796379E1,2.007615753E-3,1.026269048E-3,-5.769543350E-7,2.254717167E-3
1.206801379E1,4.087141133E-5,2.204983961E-3,-5.968586775E-4,2.284702392E-3
1.207806279E1,1.554419287E-3,-1.995458733E-3,1.417007530E-3,2.899307713E-3
1.208811179E1,5.536034005E-4,1.702238806E-4,-3.185746027E-4,6.610163932E-4
1.209816079E1,-1.866180217E-3,6.854534149E-7,-2.501736162E-4,1.882874374E-3
1.210820979E1,1.177546568E-3,6.425073370E-4,-1.322894939E-3,1.884007064E-3
1.211825879E1,3.809186746E-4,-1.074771397E-3,-1.433249563E-3,1.831512190E-3
1.212830779E1,-1.462521497E-3,-1.315521076E-3,1.524457126E-3,2.488681249E-3
1.213835679E1,5.191098899E-4,-1.298390329E-3,-9.560518083E-4,1.693908966E-3
1.214840579E1,-1.093434170E-3,-8.379300125E-4,1.310298219E-3,1.901211828E-3
1.215845479E1,1.542108366E-4,-1.497731544E-3,-1.443800284E-3,2.086034520E-3
1.216850379E1,-1.837034710E-3,1.817104872E-3,-7.897279575E-4,2.701895055E-3
1.217855279E1,2.084338048E-4,-3.144461662E-4,-3.296601935E-4,5.009958938E-4
1.218860179E1,-3.167415562E-4,-1.667065546E-3,1.672856160E-4,1.705115018E-3
1.219865079E1,1.760894083E-3,9.413408116E-4,1.634739339E-3,2.580550950E-3
1.220869979E1,6.418338744E-4,-8.557601832E-4,2.003609552E-4,1.088310951E-3
1.221874879E1,-1.289493288E-3,7.256078534E-4,-1.223288011E-3,1.919826360E-3
1.222879879E1,-3.205637448E-3,-2.230103128E-4,1.083542127E-3,3.391151513E-3
1.223884779E1,1.964327239E-4,-1.328948420E-3,-8.203680045E-4,1.574069052E-3
1.224889679E1,1.064889599E-3,-1.704734750E-4,-1.103337854E-5,1.078504890E-3
1.225894579E1,-1.781840343E-3,-4.647481255E-4,-2.007334959E-3,2.724030004E-3
1.226899479E1,-6.756358198E-5,1.259649172E-3,1.016418217E-3,1.619995946E-3
1.227904379E1,4.483692173E-4,9.847125039E-4,1.909203595E-3,2.194482179E-3
1.228909279E1,-2.115620882E-4,1.864887774E-3,-1.129196957E-3,2.190354011E-3
1.229914179E1,-1.087192912E-3,-5.148388445E-4,1.867457759E-3,2.221361282E-3
1.230919079E1,-2.216656285E-4,-6.173704751E-4,-1.155762817E-3,1.328935530E-3
1.231923979E1,9.691616287E-5,-1.966184936E-4,4.318269202E-4,4.842789111E-4
1.232928879E1,8.471286274E-4,2.998908516E-3,-1.110409619E-3,3.308185110E-3
1.233933779E1,1.617767382E-3,1.238413155E-3,-4.941091174E-4,2.096421300E-3
1.234938679E1,5.690145772E-4,-1.813036390E-3,7.629029569E-4,2.047657066E-3
1.235943579E1,2.825210337E-3,1.063815318E-3,-3.467536531E-3,4.597534782E-3
1.236948479E1,-3.783061402E-4,1.909369137E-3,-1.175886369E-3,2.274096478E-3
1.237953379E1,-5.677130539E-4,7.156794891E-4,-1.827408792E-3,2.043016920E-3
1.238958279E1,-3.108635079E-3,2.179346047E-4,-2.276480081E-4,3.124568956E-3
1.239963279E1,2.673316747E-3,6.299326196E-4,-1.426778967E-3,3.095017892E-3
1.240968179E1,2.058980463E-4,-7.541123778E-4,1.319206436E-3,1.533422677E-3
1.241973079E1,4.241626593E-4,-1.176471356E-3,4.343783949E-4,1.323889498E-3
1.242977979E1,-9.963674238E-4,-3.990945406E-4,3.781856503E-4,1.138002145E-3
1.243982879E1,1.869001426E-4,-7.844557986E-4,-2.118868870E-4,8.337857135E-4
1.244987779E1,-2.421133453E-3,1.420375891E-3,-1.116296393E-3,3.020839702E-3
1.245992679E1,1.573465706E-4,8.655292913E-5,-4.132587346E-4,4.505908727E-4
1.246997579E1,-9.790242184E-4,1.559813507E-3,5.225760397E-4,1.914312491E-3
1.248002479E1,-1.487092115E-3,-2.714058384E-3,1.059142174E-3,3.270984258E-3
1.249007379E1,1.660497976E-3,-3.335107584E-3,-1.245291089E-3,3.928224283E-3
1.250012279E1,1.050524297E-4,1.275679097E-5,-1.766726142E-3,1.769892655E-3
1.251017179E1,1.961808186E-3,2.220517490E-3,1.165147871E-3,3.183859112E-3
1.252022079E1,1.482501975E-3,-8.551594801E-4,-4.744305625E-4,1.776005124E-3
1.253026979E1,3.884754260E-4,1.324105076E-3,1.605231897E-3,2.116822348E-3
1.254031879E1,5.797355552E-4,1.950859092E-3,1.509403926E-3,2.533820184E-3
1.255036779E1,1.301939483E-4,-7.157637738E-4,8.601251757E-4,1.126536090E-3
1.256041779E1,4.455979506E-4,4.543699324E-4,1.185300411E-3,1.345342571E-3
1.257046679E1,-7.770593511E-4,-1.608781051E-3,-6.709229201E-4,1.908437913E-3
1.258051579E1,-9.072607500E-4,6.786161102E-4,-1.333605149E-3,1.749898450E-3
1.259056479E1,8.197992574E-4,-1.278008334E-3,-4.084229586E-4,1.572318491E-3
1.260061379E1,5.837206845E-4,-6.946376525E-4,-2.346114255E-3,2.515452923E-3
1.261066279E1,1.722623128E-4,-1.301838085E-3,4.893532023E-4,1.401400464E-3
1.262071179E1,-2.239577007E-4,-1.228953712E-3,-1.449954463E-3,1.913857942E-3
1.263076079E1,4.828452365E-4,-1.015634276E-3,-2.920120023E-4,1.161862089E-3
1.264080979E1,-3.517099540E-4,-2.075466327E-4,-4.191947519E-4,5.852347704E-4
1.265085879E1,-5.407943390E-4,2.864697017E-4,4.420715850E-4,7.549507887E-4
1.266090779E1,5.252056872E-4,-4.443246871E-5,-1.109132543E-3,1.228002547E-3
1.267095679E1,6.469121436E-4,-2.330489922E-3,-1.329908613E-3,2.760133243E-3
1.268100579E1,-1.845460385E-3,2.107545733E-3,-7.885626983E-4,2.910206897E-3
1.269105479E1,5.689614918E-4,-4.088757560E-4,-2.572620288E-4,7.463781310E-4
1.270110379E1,1.952946186E-3,4.328601062E-5,5.761253415E-4,2.036613094E-3
1.271115379E1,9.270966402E-4,-1.955682877E-3,8.778615156E-4,2.335560862E-3
1.272120279E1,5.732738646E-4,-1.707766205E-4,2.778146882E-4,6.595366395E-4
1.273125179E1,-3.745451686E-4,-3.335718066E-5,9.196364554E-4,9.935431520E-4
1.274130079E1,5.228010123E-4,8.483314887E-4,1.318042167E-3,1.652338454E-3
1.275134979E1,-2.636304125E-4,5.870405585E-5,1.249460038E-4,2.975880785E-4
1.276139879E1,-1.029569539E-3,-1.428548712E-3,-7.514838362E-4,1.914547679E-3
1.277144779E1,-1.883911551E-3,1.204784960E-3,1.502349274E-3,2.694008699E-3
1.278149679E1,-1.886245562E-3,-5.573784001E-4,1.235263189E-3,2.322599437E-3
1.279154579E1,8.618703578E-4,-9.999959730E-4,-8.782214136E-4,1.585586740E-3
1.280159479E1,-2.950174036E-3,4.727141932E-4,4.316718550E-4,3.018828604E-3
1.281164379E1,4.203225253E-4,5.779094063E-4,7.938618073E-4,1.068113700E-3
1.282169279E1,1.715926919E-5,-1.677520573E-3,1.144370763E-4,1.681506931E-3
1.283174179E1,1.915993053E-3,7.270881906E-5,5.128460471E-4,1.984773795E-3
1.284179079E1,5.557386903E-4,-8.445372805E-5,1.783559565E-4,5.897361879E-4
1.285183979E1,5.727829412E-4,4.737265408E-5,2.032182412E-3,2.111892474E-3
1.286188879E1,-1.166016329E-3,-8.244323544E-4,-1.370995189E-3,1.979623852E-3
1.287193779E1,7.868795656E-4,-1.265984494E-3,1.008539228E-3,1.799735415E-3
1.288198779E1,8.373453747E-4,-1.677797642E-3,-1.627891907E-4,1.882193540E-3
1.289203679E1,-1.985072624E-3,3.464710899E-4,-8.948922041E-4,2.204855459E-3
1.290208579E1,1.572887413E-4,4.591979086E-4,-2.353645395E-3,2.403174799E-3
1.291213479E1,2.087281551E-3,8.839722723E-4,-2.476150868E-3,3.357003779E-3
1.292218379E1,-1.857164782E-3,2.907390241E-3,-8.574291132E-5,3.450989841E-3
1.293223279E1,-1.724491012E-4,-6.977310404E-4,-1.413328690E-3,1.585580424E-3
1.294228179E1,8.837078349E-4,1.716543920E-4,-2.271658042E-3,2.443529216E-3
1.295233079E1,-5.669159582E-4,-1.579374075E-3,7.776614511E-4,1.849479252E-3
1.296237979E1,5.713689025E-4,2.537346445E-4,8.303092327E-4,1.039354181E-3
1.297242879E1,2.542907139E-3,1.146426424E-3,-1.442432404E-3,3.140267744E-3
1.298247779E1,3.474112018E-4,-1.491005532E-3,1.383184572E-3,2.063247828E-3
1.299252679E1,1.122540853E-4,3.638863564E-4,-1.784379361E-3,1.824561307E-3
1.300257579E1,-8.023759001E-4,-5.031311885E-4,1.887840917E-4,9.657057063E-4
1.301262404E1,-1.268429216E-3,1.862288453E-3,-1.277019735E-3,2.589944085E-3
1.302267304E1,1.138722640E-3,2.635996789E-4,9.680059738E-4,1.517632896E-3
1.303272304E1,-2.714338945E-3,-1.422447618E-3,-1.264521852E-3,3.315118196E-3
1.304277204E1,-1.433304162E-3,-5.539925769E-5,-6.571818958E-4,1.577757251E-3
1.305282104E1,9.568829555E-4,1.419725828E-3,-3.447931376E-4,1.746461773E-3
1.306287004E1,-3.981986083E-5,-1.877825707E-5,-8.155702380E-4,8.167576491E-4
1.307291904E1,-9.961610194E-4,-1.042497344E-3,-3.324727877E-4,1.479755265E-3
1.308296804E1,6.507236976E-4,1.186482143E-3,-2.452126704E-3,2.800733222E-3
1.309301704E1,3.122403519E-3,-1.186127774E-3,1.380961156E-3,3.614326569E-3
1.310306604E1,-5.607597413E-4,1.218548976E-3,9.904052131E-4,1.667397847E-3
1.311311504E1,-2.009253018E-3,-3.812961280E-3,-1.312430133E-3,4.505357285E-3
1.312316404E1,3.031459637E-3,2.711643465E-4,6.541126641E-4,3.113059751E-3
1.313321304E1,-1.169292955E-4,1.541225240E-3,-6.494083209E-5,1.547018103E-3
1.314326204E1,5.753798760E-4,-2.165040001E-3,-1.269472996E-4,2.243786047E-3
1.315331104E1,-9.950861568E-4,2.800081857E-4,5.135429092E-4,1.154264858E-3
1.316336004E1,-7.703953888E-4,-3.278520890E-4,9.565119399E-4,1.271184935E-3
1.317340904E1,3.087992314E-3,7.491302676E-4,-2.216704306E-4,3.185283421E-3
1.318345904E1,1.583820209E-3,-6.583831273E-4,1.181643805E-3,2.082843460E-3
1.319350804E1,8.479887620E-4,1.350172795E-3,-8.535437519E-4,1.808476833E-3
1.320355704E1,-2.168081002E-3,-4.880824126E-4,1.613178756E-4,2.228188307E-3
1.321360604E1,-2.385927597E-3,-1.719654538E-4,4.715761170E-4,2.438156404E-3
1.322365504E1,-5.514446530E-4,-6.756423973E-4,2.586500486E-4,9.096613116E-4
1.323370404E1,5.039661191E-4,2.128666267E-3,-9.064829792E-4,2.367892167E-3
1.324375304E1,-1.282230951E-3,-1.756645273E-3,1.209250535E-3,2.488414291E-3
1.325380204E1,1.106023265E-4,-2.407743596E-4,5.506506423E-4,6.110820703E-4
1.326385104E1,-1.596489223E-3,2.274661791E-3,1.545097097E-3,3.179652361E-3
1.327390004E1,1.836858108E-3,-2.342193853E-3,2.357361373E-3,3.796982011E-3
1.328394904E1,2.421932993E-3,1.801594160E-3,4.139414523E-4,3.046776734E-3
1.329399804E1,1.719923690E-3,-9.963228367E-4,3.982287599E-4,2.027161276E-3
1.330404704E1,-1.478224294E-3,8.313264698E-5,-1.025398262E-3,1.800971876E-3
1.331409604E1,-2.029232215E-3,-7.499041967E-4,8.353524609E-4,2.319041488E-3
1.332414604E1,-2.353932709E-3,-6.665010005E-5,1.418357133E-3,2.749032264E-3
1.333419504E1,6.485151243E-4,2.351233270E-3,2.180703450E-4,2.448759774E-3
1.334424404E1,7.667386672E-4,1.174407080E-4,9.418142727E-4,1.220120743E-3
1.335429304E1,1.492450130E-3,-1.147294417E-3,-1.150631346E-3,2.206273864E-3
1.336434204E1,2.127428073E-3,8.385097608E-4,-1.068389276E-3,2.523985830E-3
1.337439104E1,1.155374222E-3,8.089486510E-4,-3.440094879E-4,1.451767902E-3
1.338444004E1,3.589676926E-4,7.073110901E-4,1.285189763E-3,1.510251472E-3
1.339448904E1,3.427224001E-4,-6.208070554E-4,6.998935714E-5,7.125717884E-4
1.340453804E1,7.031324785E-4,-2.762320219E-3,6.540232571E-4,2.924475114E-3
1.341458704E1,-5.924954312E-4,9.578419849E-5,-1.144409413E-3,1.292245469E-3
1.342463604E1,8.497487288E-4,-1.064492390E-4,-1.958064269E-3,2.137152317E-3
1.343468504E1,-3.579948389E-4,6.903684698E-4,-4.642973072E-4,9.057267348E-4
1.344473404E1,-7.102430682E-4,1.989667304E-3,-1.013343805E-3,2.343093439E-3
1.345478304E1,-1.590684056E-3,-2.648493741E-3,9.842566215E-6,3.089480820E-3
1.346483204E1,1.730597694E-3,3.704470582E-4,3.518962767E-4,1.804447393E-3
1.347488104E1,-1.762255852E-4,8.029444143E-4,-2.280372195E-3,2.424019913E-3
1.348493104E1,-1.962630777E-4,-7.218671963E-4,-1.364994445E-3,1.556541448E-3
1.349498004E1,4.679292615E-4,-1.889929641E-3,3.333033528E-4,1.975318447E-3
1.350502904E1,7.132097962E-4,4.698522389E-7,1.079314156E-3,1.293672092E-3
1.351507804E1,-1.334494678E-3,2.042017877E-4,4.529386642E-4,1.423983093E-3
1.352512704E1,-4.435968585E-4,5.438467488E-4,-2.342357067E-3,2.445237021E-3
1.353517604E1,1.793991076E-3,1.035999041E-3,-1.746874303E-3,2.709846457E-3
1.354522504E1,1.590248197E-3,-1.233835239E-3,9.194504237E-4,2.212832530E-3
1.355527404E1,2.990209032E-5,6.072078831E-4,-1.313077519E-3,1.446985874E-3
1.356532304E1,-4.096435732E-4,1.994990744E-4,-6.283402909E-4,7.761567231E-4
1.357537204E1,-1.534030307E-3,-6.282115355E-4,1.916469773E-4,1.668720252E-3
1.358542104E1,1.437685452E-3,-4.082177766E-4,-2.237861743E-3,2.691023299E-3
1.359547004E1,-7.375844289E-4,-1.074008178E-3,-1.368073281E-3,1.889219113E-3
1.360551904E1,-1.839196309E-3,-2.044695430E-4,-3.517358098E-3,3.974450761E-3
1.361556804E1,2.028778894E-3,9.574675933E-4,5.133362720E-4,2.301347892E-3
1.362561804E1,2.569377422E-3,1.028697472E-3,7.702373550E-4,2.872835605E-3
1.363566704E1,5.285924999E-6,6.729643792E-5,-3.418987035E-4,3.484988881E-4
1.364571604E1,8.793118177E-4,-1.571036410E-3,1.699378015E-3,2.475728239E-3
1.365576504E1,5.117956316E-4,-1.796605997E-3,-1.059789793E-4,1.871085092E-3
1.366581404E1,-2.907893213E-4,2.261840738E-3,-1.931819366E-3,2.988713439E-3
1.367586304E1,1.681281487E-3,3.944323398E-4,-8.263413329E-4,1.914451437E-3
1.368591204E1,7.037852192E-4,6.881775334E-5,-1.112810802E-3,1.318482991E-3
1.369596104E1,-1.926347613E-4,2.317857929E-3,1.414795406E-3,2.722355519E-3
1.370601004E1,-1.769427909E-4,-6.029382348E-4,1.699595479E-3,1.812034232E-3
1.371605904E1,-1.907912083E-4,2.769702114E-4,4.227156751E-6,3.363504899E-4
1.372610804E1,4.461793287E-4,-1.055666711E-3,5.160474102E-4,1.256906173E-3
1.373615704E1,5.918542156E-4,-6.644483656E-4,-1.316333655E-4,8.995056342E-4
1.374620604E1,-3.113919811E-4,-3.232685849E-4,1.108357683E-3,1.195794421E-3
1.375625504E1,-1.336708898E-3,-1.485738438E-3,6.313855411E-4,2.095914379E-3
1.376630404E1,1.528906170E-3,9.611411951E-4,-5.122377188E-4,1.877161143E-3
1.377635404E1,2.028781688E-3,-1.818872988E-4,-2.222194453E-4,2.049004541E-3
1.378640304E1,5.207728245E-4,-7.749777287E-4,-2.490832703E-4,9.663525704E-4
1.379645204E1,1.166855684E-3,1.446631271E-3,-7.681333809E-4,2.011050251E-3
1.380650104E1,-3.305703402E-3,9.506964125E-4,-1.292640576E-3,3.674563689E-3
1.381655004E1,1.015446614E-4,1.344311051E-3,6.035300903E-4,1.477068749E-3
1.382659904E1,4.528596473E-4,-6.179837510E-5,1.382875489E-3,1.456449628E-3
1.383664804E1,1.084028860E-3,4.987968132E-4,-3.220801591E-4,1.235982386E-3
1.384669704E1,1.709805569E-3,-2.102537081E-3,1.520636259E-3,3.107479990E-3
1.385674604E1,-1.456187456E-4,1.491665374E-3,-3.611532738E-4,1.541655635E-3
1.386679504E1,6.106462097E-4,2.296474297E-3,-4.919630010E-5,2.376784228E-3
1.387684404E1,-9.269465227E-5,1.058903523E-3,7.625352009E-4,1.308177703E-3
1.388689304E1,6.756604998E-4,3.067180514E-4,-1.146512222E-3,1.365680545E-3
1.389694204E1,-1.075634267E-3,-1.730866265E-3,4.082412925E-4,2.078352245E-3
1.390699104E1,-1.498795464E-3,-2.754246816E-4,1.157176448E-4,1.528279153E-3
1.391704104E1,5.694153951E-4,6.936998107E-4,1.075520879E-3,1.400784951E-3
1.392709004E1,5.684398930E-4,-7.012602873E-4,-1.395373256E-4,9.134333953E-4
1.393713904E1,-1.464350964E-3,2.246059943E-3,1.421873923E-3,3.034935661E-3
1.394718804E1,-1.210061018E-4,-2.109543420E-4,2.264097333E-3,2.277121197E-3
1.395723704E1,2.839724766E-5,1.424226444E-3,-3.335499787E-4,1.463038946E-3
1.396728604E1,7.308947388E-4,7.742648013E-4,5.305884406E-5,1.066071453E-3
1.397733504E1,-1.340511953E-3,-1.373351552E-4,-9.285823326E-4,1.636489655E-3
1.398738404E1,1.582463388E-3,-2.422467805E-4,6.865817704E-4,1.741915155E-3
1.399743304E1,-2.852114849E-4,-3.554313444E-4,2.773434622E-3,2.810625666E-3
1.400748204E1,1.705719158E-3,-2.531618811E-4,3.261773381E-4,1.754981607E-3
1.401753167E1,5.528366892E-4,-1.221753657E-3,-1.163328649E-3,1.775287004E-3
1.402758067E1,-6.979425671E-4,-7.347823121E-4,5.851109745E-4,1.170206702E-3
1.403762967E1,-8.795701433E-4,-2.028812654E-3,1.830937807E-3,2.870898409E-3
1.404767967E1,6.000878639E-4,1.505268738E-3,-2.069086302E-3,2.628128144E-3
1.405772867E1,-8.590581128E-4,-1.457497943E-3,-5.026150029E-4,1.764908762E-3
1.406777767E1,2.769118291E-4,-1.711073332E-3,-2.339923754E-3,2.911991635E-3
1.407782667E1,-1.135362545E-3,-8.303658105E-4,-1.247228589E-3,1.879929424E-3
1.408787567E1,-6.817668909E-4,-6.956174038E-4,-1.006686594E-3,1.400752500E-3
1.409792467E1,-8.676555008E-4,1.488174777E-3,-8.985621971E-4,1.942911284E-3
1.410797367E1,-2.032719087E-3,-1.071098261E-3,-9.171158308E-4,2.473923972E-3
1.411802267E1,1.257616328E-3,-9.238254279E-4,1.106087584E-3,1.912715868E-3
1.412807167E1,-8.747715037E-4,2.421330661E-3,-5.595318507E-4,2.634604950E-3
1.413812067E1,6.871724618E-4,2.170321532E-4,1.283375663E-3,1.471856664E-3
1.414816967E1,-4.896848695E-4,-1.348287333E-3,-6.959022139E-4,1.594349364E-3
1.415821867E1,-2.187450184E-3,8.030142635E-4,-5.168357166E-5,2.330759834E-3
1.416826767E1,-3.582953475E-3,1.587723847E-3,-1.592424116E-3,4.230158057E-3
1.417831667E1,-5.916911759E-4,-1.602210104E-3,-7.431420963E-4,1.862642167E-3
1.418836667E1,-1.205726992E-3,-8.566486649E-4,-7.395924185E-4,1.653669090E-3
1.419841567E1,-2.071254421E-3,1.373748295E-3,1.929161372E-3,3.146258548E-3
1.420846467E1,6.448545028E-4,2.309079282E-4,-1.803030609E-3,1.928749641E-3
1.421851367E1,1.665507734E-4,-8.787261322E-5,1.252147835E-3,1.266228635E-3
1.422856267E1,-1.619754592E-3,-2.937046811E-4,4.111669259E-4,1.696739703E-3
1.423861167E1,-4.772584070E-4,-3.629313782E-3,1.567777828E-3,3.982162909E-3
1.424866067E1,1.749331597E-3,-4.244968295E-4,-3.446757328E-4,1.832801123E-3
1.425870967E1,-2.300218330E-5,-2.693243558E-3,-5.215096171E-4,2.743366954E-3
1.426875867E1,-1.391771948E-3,8.951774798E-4,1.452733530E-3,2.202000587E-3
1.427880767E1,9.739139932E-4,-5.879369564E-4,-1.600768301E-4,1.148826759E-3
1.428885667E1,2.786296420E-3,2.190172672E-4,4.876200110E-4,2.837109370E-3
1.429890567E1,4.408505047E-4,7.668295875E-4,6.151854759E-4,1.077418189E-3
1.430895467E1,-2.128305146E-3,-2.773832530E-4,4.674046650E-4,2.196609065E-3
1.431900367E1,2.846479649E-3,-9.181397036E-4,4.652741482E-4,3.026864209E-3
1.432905367E1,-1.326170051E-3,-7.585836574E-4,6.394249504E-4,1.656212679E-3
1.433910267E1,-9.221684886E-4,-1.910640858E-4,-1.789644593E-4,9.586075756E-4
1.434915167E1,-8.910924080E-4,-3.421162255E-4,5.697959568E-5,9.562091119E-4
1.435920067E1,1.605887432E-3,-1.651326194E-3,4.402084742E-4,2.345108983E-3
1.436924967E1,1.997965155E-3,-1.704819035E-3,1.647803467E-3,3.100569136E-3
1.437929867E1,-9.064781480E-4,-2.658763435E-3,-3.074893029E-4,2.825822943E-3
1.438934767E1,-2.110802103E-3,-1.597178634E-3,-3.102811752E-5,2.647154671E-3
1.439939667E1,2.253227431E-4,1.307264902E-3,1.531981165E-3,2.026494054E-3
1.440944567E1,4.954522592E-4,-1.398982946E-3,-1.215704367E-3,1.918479433E-3
1.441949467E1,-3.916466958E-4,1.236481126E-3,-1.515052281E-4,1.305843231E-3
1.442954367E1,-8.316843887E-4,-6.966451183E-4,-1.975087449E-3,2.253438212E-3
1.443959267E1,1.518209756E-4,1.324161422E-3,-6.182068610E-4,1.469228642E-3
1.444964167E1,-2.082258929E-3,1.073507126E-3,-6.933229743E-4,2.443136620E-3
1.445969067E1,1.058140770E-3,-1.182190608E-3,-1.126086689E-3,1.945586737E-3
1.446974067E1,-2.031549346E-3,-4.735761322E-4,5.264910287E-4,2.151432058E-3
1.447978967E1,-1.973226201E-3,1.111537218E-3,-1.052763546E-3,2.497488280E-3
1.448983867E1,-1.176786725E-3,6.302730180E-4,-7.946574478E-4,1.553560921E-3
1.449988767E1,2.173780958E-4,7.431912236E-4,2.496477216E-3,2.613806596E-3
1.450993667E1,2.882044937E-4,2.309940755E-4,-1.291640336E-3,1.343411646E-3
1.451998567E1,7.324197795E-4,-1.710450277E-3,2.118803561E-3,2.819824004E-3
1.453003467E1,-8.670440293E-4,1.994587481E-3,3.578920150E-4,2.204139574E-3
1.454008367E1,-4.691677750E-4,-5.791056901E-5,-1.043995959E-3,1.146036473E-3
1.455013267E1,1.810709946E-3,-2.132477239E-4,7.705333410E-4,1.979360182E-3
1.456018167E1,1.736940583E-3,-6.372225471E-4,-5.237629521E-4,1.922847574E-3
1.457023067E1,-1.500374638E-4,1.493939199E-3,1.521105762E-3,2.137318017E-3
1.458027967E1,9.923442849E-5,1.945611089E-3,-1.319155563E-3,2.352747624E-3
1.459032867E1,-1.514785457E-3,-1.511071809E-3,-1.439738437E-3,2.578906698E-3
1.460037767E1,-7.906718529E-4,-1.877256669E-3,2.631169744E-3,3.327507897E-3
1.461042767E1,8.255196735E-4,1.927615143E-3,7.101290976E-4,2.213925520E-3
1.462047667E1,-1.332183310E-4,-1.097470056E-3,1.226357999E-4,1.112307146E-3
1.463052567E1,-1.626395853E-3,1.363658812E-3,-2.565523027E-4,2.137883980E-3
1.464057467E1,-2.182996599E-3,-1.459291670E-3,-1.564174891E-4,2.630489073E-3
1.465062367E1,1.735675149E-3,1.668897923E-3,9.285245324E-5,2.409649368E-3
1.466067267E1,-9.695638437E-4,-2.051689662E-4,1.240408514E-3,1.587690660E-3
1.467072167E1,1.625556033E-3,-2.523036674E-4,8.844095282E-4,1.867691027E-3
1.468077067E1,-6.256139604E-4,-1.771104056E-3,8.066743612E-5,1.880082350E-3
1.469081967E1,2.721810888E-4,-9.255632758E-4,8.616539417E-4,1.293521333E-3
1.470086867E1,5.542098661E-4,4.662047140E-4,-1.265146537E-3,1.457769245E-3
1.471091767E1,-2.228762605E-4,2.439691219E-3,1.420746674E-3,2.832011332E-3
1.472096667E1,3.723402042E-4,-4.517026246E-4,-1.174503821E-3,1.312300162E-3
1.473101567E1,2.809442813E-3,-9.374720976E-4,-1.173674245E-3,3.185801953E-3
1.474106567E1,1.578687807E-5,3.757327795E-4,-2.468941384E-4,4.498678280E-4
1.475111467E1,7.668365724E-4,3.281254321E-4,2.429306624E-4,8.687461855E-4
1.476116367E1,1.147934934E-3,1.547053922E-3,-4.817154550E-4,1.985744251E-3
1.477121267E1,1.181957312E-3,2.353502437E-3,-1.917032059E-4,2.640595942E-3
1.478126167E1,1.259455341E-3,2.759634517E-3,-2.442606958E-3,3.894629530E-3
1.479131067E1,-6.599028711E-4,2.171962988E-3,1.717092469E-3,2.846278547E-3
1.480135967E1,-3.493783297E-4,8.643507026E-4,8.861862007E-4,1.286271098E-3
1.481140867E1,-8.009281592E-4,-1.564546023E-3,-1.250629430E-4,1.762081415E-3
1.482145767E1,-4.675003584E-4,-8.092732169E-4,1.513580093E-3,1.778877293E-3
1.483150667E1,-8.843594696E-4,-2.535083331E-4,-1.602948178E-3,1.848188574E-3
1.484155567E1,1.075993408E-3,-6.180950440E-4,-3.792256466E-4,1.297542057E-3
1.485160467E1,3.046156489E-4,6.795949303E-4,-3.256303025E-4,8.128192030E-4
1.486165367E1,-3.779524995E-4,2.013572492E-3,7.446941454E-4,2.179883401E-3
1.487170367E1,3.956038272E-4,1.391883940E-3,-1.054735505E-3,1.790617289E-3
1.488175267E1,-8.829797735E-4,7.841512561E-4,1.190575655E-3,1.676906933E-3
1.489180167E1,-2.201072406E-3,-1.028671395E-3,1.643100288E-3,2.933029685E-3
1.490185067E1,8.551712381E-4,-5.104201846E-4,2.406796557E-4,1.024584456E-3
1.491189967E1,-9.203483351E-4,-1.624087803E-3,-1.339086215E-3,2.297358079E-3
1.492194867E1,-1.056968467E-3,5.373335443E-4,9.030290530E-4,1.490426499E-3
1.493199767E1,1.620166469E-3,4.455088638E-4,-7.412971463E-4,1.836556287E-3
1.494204667E1,3.849924542E-4,-5.156258121E-4,-9.903026512E-4,1.181011646E-3
1.495209567E1,2.597364597E-3,4.896484315E-4,-1.974476036E-3,3.299183846E-3
1.496214467E1,-9.411773644E-4,1.263935119E-4,1.321185846E-3,1.627059369E-3
1.497219367E1,6.366897724E-4,-5.424646661E-4,1.559972065E-3,1.770071926E-3
1.498224267E1,-2.440175740E-4,-1.189346425E-3,8.622238529E-4,1.489133798E-3
1.499229167E1,-9.544156492E-4,8.754879236E-4,-2.421238227E-3,2.745866509E-3
1.500234067E1,2.355893608E-3,-3.767999588E-3,6.437938428E-4,4.490270159E-3
1.501239067E1,-1.437004539E-4,5.956995301E-4,4.489779240E-4,7.596636932E-4
1.502243950E1,6.688300055E-4,7.006279193E-4,-4.756716080E-4,1.079109140E-3
1.503248850E1,7.214969955E-4,1.696519088E-3,6.620079512E-5,1.844754042E-3
1.504253750E1,5.662346957E-4,-1.107522752E-3,-9.029235807E-4,1.537042410E-3
1.505258650E1,-3.241542145E-4,4.379190505E-4,5.099817645E-5,5.472201235E-4
1.506263550E1,-1.139614149E-3,-1.492872834E-3,4.339608131E-4,1.927618140E-3
1.507268450E1,4.948233836E-4,-3.610257991E-4,1.261894358E-4,6.253907437E-4
1.508273350E1,-2.057816600E-3,5.516395904E-4,-3.105690121E-4,2.152990597E-3
1.509278250E1,-2.039389219E-4,3.605391830E-4,4.220694536E-4,5.913731564E-4
1.510283150E1,-4.521455267E-4,-1.285826787E-3,1.652716193E-3,2.142255102E-3
1.511288050E1,2.490467159E-4,-1.576183829E-3,-9.817429818E-4,1.873552511E-3
1.512292950E1,2.251743805E-3,1.319679432E-4,-2.570968354E-4,2.270212431E-3
1.513297850E1,1.403864007E-3,9.745098650E-4,-5.418338114E-4,1.792787636E-3
1.514302850E1,9.242286906E-4,-9.554829448E-4,-5.639380543E-4,1.444012624E-3
1.515307750E1,-7.563813124E-4,-3.767493181E-4,3.244052641E-5,8.456388864E-4
1.516312650E1,-3.254819021E-4,2.135676797E-3,-1.666123630E-3,2.728190206E-3
1.517317550E1,2.386697888E-4,2.420898527E-4,1.252550865E-4,3.622976698E-4
1.518322450E1,-4.090109724E-4,-1.267581247E-4,-6.569153629E-4,7.841526584E-4
1.519327350E1,2.781755989E-3,4.401807673E-4,-8.344938979E-4,2.937397753E-3
1.520332250E1,1.583599718E-3,2.971692011E-4,5.668614758E-4,1.708048458E-3
1.521337150E1,-5.334623856E-4,1.149805728E-3,-5.123624578E-4,1.367168833E-3
1.522342050E1,1.654857071E-3,8.038613014E-4,-1.183478977E-3,2.187548264E-3
1.523346950E1,1.939411857E-3,-3.791842610E-4,2.601655666E-3,3.267064624E-3
1.524351850E1,2.008121461E-3,1.552938949E-3,-6.922840839E-5,2.539481001E-3
1.525356750E1,-2.833160106E-4,1.268820371E-3,-9.021049482E-4,1.582392630E-3
1.526361650E1,1.803270774E-3,-2.630297095E-4,3.141607158E-4,1.849234184E-3
1.527366650E1,9.030619403E-4,9.833569638E-4,-9.523554472E-4,1.639967281E-3
1.528371550E1,-2.861582441E-3,3.525344655E-3,2.436701907E-4,4.547096235E-3
1.529376450E1,-2.991680289E-3,-2.597216517E-4,2.061015926E-3,3.642168713E-3
1.530381350E1,2.797499066E-3,8.122008294E-4,4.197098315E-4,2.943098292E-3
1.531386250E1,-5.431038444E-4,-6.577009335E-4,3.218760248E-4,9.116668685E-4
1.532391150E1,8.246956859E-4,7.436545566E-4,8.071040502E-4,1.372793510E-3
1.533396050E1,-9.104984347E-4,2.345829271E-3,-1.006049453E-3,2.709992227E-3
1.534400950E1,1.875700662E-3,-1.099235378E-3,4.554933403E-4,2.221271161E-3
1.535405850E1,-1.321673044E-3,5.342704244E-4,-9.880162543E-4,1.734485699E-3
1.536410750E1,-2.017290797E-3,8.256202564E-4,-1.328101964E-3,2.552443103E-3
1.537415650E1,6.834616652E-4,7.918812335E-4,-1.060431008E-3,1.489533370E-3
1.538420550E1,-5.911271437E-4,3.468673676E-4,-1.208502683E-3,1.389326098E-3
1.539425450E1,-8.856238564E-4,8.756206371E-4,1.350117731E-3,1.836806741E-3
1.540430450E1,2.813733299E-4,-6.847255863E-4,4.281313159E-4,8.551704526E-4
1.541435350E1,3.566640953E-4,1.838230528E-4,-1.474503893E-3,1.528123661E-3
1.542440250E1,1.055743895E-3,-3.773048520E-4,-1.938426634E-3,2.239297198E-3
1.543445150E1,-2.179791220E-3,-1.449137926E-5,-7.065937389E-4,2.291500485E-3
1.544450050E1,-9.454159299E-4,1.039854251E-3,1.751788659E-4,1.416261197E-3
1.545454950E1,2.097307151E-4,9.723827243E-4,3.905658377E-4,1.068670580E-3
1.546459850E1,5.380984512E-4,-3.932858817E-4,1.592183951E-3,1.726057201E-3
1.547464750E1,-2.172440989E-3,7.177912630E-4,-1.224448206E-3,2.594994712E-3
1.548469650E1,3.045651247E-4,-1.488371287E-3,-3.589208936E-4,1.561035941E-3
1.549474550E1,1.122305403E-3,-1.274608541E-3,-1.313651679E-3,2.147062431E-3
1.550479450E1,6.050305092E-5,1.595914364E-5,1.012619468E-3,1.014550886E-3
1.551484350E1,1.418265863E-3,-1.597763970E-3,1.518162433E-3,2.620905366E-3
1.552489250E1,3.764371795E-4,-3.473162185E-3,-2.634924022E-4,3.503425290E-3
1.553494250E1,-1.559177064E-3,-1.405943651E-3,-1.037638751E-3,2.341880621E-3
1.554499150E1,1.153518679E-3,1.277457457E-3,-7.651973283E-4,1.883621471E-3
1.555504050E1,-2.219075570E-3,-4.392545670E-4,1.798220910E-4,2.269267931E-3
1.556508950E1,-2.691254020E-3,-2.951775678E-4,-1.727267634E-3,3.211453172E-3
1.557513850E1,6.198087940E-4,-5.843271501E-4,-2.114357194E-4,8.776709081E-4
1.558518750E1,-3.301429562E-3,-2.479697578E-4,-2.729547559E-4,3.321961838E-3
1.559523650E1,-2.070004819E-3,-5.228132941E-4,-2.358842175E-3,3.181570383E-3
1.560528550E1,1.623000717E-3,-8.365791291E-5,6.159086479E-4,1.737950930E-3
1.561533450E1,-4.963545944E-4,-1.594846137E-3,1.420110581E-3,2.192399632E-3
1.562538350E1,5.904814461E-4,9.026662447E-4,-3.101451439E-4,1.122347851E-3
1.563543250E1,1.603143523E-3,8.967891335E-5,8.371098666E-4,1.810763483E-3
1.564548150E1,6.105834618E-4,1.101680100E-3,-1.349345432E-3,1.845872233E-3
1.565553150E1,-1.131617231E-3,-3.797691315E-4,4.475218011E-4,1.274777594E-3
1.566558050E1,2.934230957E-3,-6.623305380E-4,-3.639433999E-4,3.029991394E-3
1.567562950E1,6.882661255E-4,-6.491313688E-4,1.418554690E-3,1.705103868E-3
1.568567850E1,6.712218747E-4,-6.941389292E-4,3.578177420E-4,1.029757833E-3
1.569572750E1,-3.123224014E-4,6.134286523E-4,-9.004395688E-4,1.133415816E-3
1.570577650E1,-2.722749487E-3,-2.549341414E-3,1.463648514E-3,4.006840823E-3
1.571582550E1,-8.715190925E-4,1.410098746E-3,1.431033714E-3,2.189927280E-3
1.572587450E1,4.821656912E-4,-9.361463599E-4,1.882972196E-3,2.157414668E-3
1.573592350E1,-1.550713321E-3,1.381443813E-3,-7.890849374E-4,2.221655656E-3
1.574597250E1,-2.791480161E-3,-1.203129068E-4,-1.264904276E-4,2.796933413E-3
1.575602150E1,-1.642116345E-3,1.517497003E-4,5.895557115E-5,1.650166605E-3
1.576607050E1,1.851418521E-3,1.960834488E-3,-1.892509754E-4,2.703412355E-3
1.577611950E1,-1.510904694E-4,-1.571220346E-4,-7.291873917E-4,7.610715577E-4
1.578616950E1,6.795494701E-4,7.225200534E-4,2.586181974E-3,2.769866407E-3
1.579621850E1,8.832042222E-4,-1.323511824E-4,6.791592459E-4,1.121973179E-3
1.580626750E1,1.084805466E-3,-5.307602696E-4,1.152402954E-3,1.669293842E-3
1.581631650E1,-2.949372865E-4,-1.382810995E-3,-1.340508228E-3,1.948362533E-3
1.582636550E1,1.402232447E-4,1.055579167E-3,-2.267743694E-4,1.088731625E-3
1.583641450E1,3.211499425E-4,-1.472888514E-3,6.278621149E-4,1.633018278E-3
1.584646350E1,-1.240793965E-3,2.925209701E-4,-1.697546686E-4,1.286061751E-3
1.585651250E1,-2.836690750E-3,3.134114668E-3,-2.428434789E-3,4.875118941E-3
1.586656150E1,6.682954263E-4,2.339959145E-3,2.000135835E-3,3.150011259E-3
1.587661050E1,-1.144819194E-3,5.822256207E-4,-1.394328661E-3,1.895718881E-3
1.588665950E1,2.946595196E-3,-2.731811954E-3,1.194796641E-3,4.191987454E-3
1.589670850E1,6.864861934E-4,8.499915712E-4,-5.672201514E-4,1.231051447E-3
1.590675750E1,5.530618364E-4,-1.140188891E-3,1.593935187E-3,2.036304860E-3
1.591680750E1,-2.755367430E-3,2.230684739E-3,2.962466097E-4,3.557494361E-3
1.592685650E1,8.066105656E-4,-8.196998388E-4,9.697600035E-4,1.504314759E-3
1.593690550E1,3.031840897E-4,1.383460592E-3,1.229850692E-3,1.875744260E-3
1.594695450E1,8.986485773E-5,8.817208000E-4,1.506286790E-3,1.747686229E-3
1.595700350E1,-2.790274448E-5,-1.055182889E-3,4.184150603E-4,1.135456144E-3
1.596705250E1,9.572005365E-4,-3.039049916E-4,1.393664512E-3,1.717816021E-3
1.597710150E1,-1.228210749E-6,2.262497786E-3,4.894674057E-4,2.314838241E-3
1.598715050E1,-1.757316524E-3,7.364572957E-5,2.508481266E-4,1.776656929E-3
