"Time (s)","Gyroscope x (rad/s)","Gyroscope y (rad/s)","Gyroscope z (rad/s)","Absolute (rad/s)"
1.423091666E-2,1.313009299E-3,-3.312649205E-4,1.518138219E-3,2.034323848E-3
2.427991667E-2,1.085764496E-3,2.096904907E-3,1.855436247E-3,3.003088143E-3
3.432991666E-2,6.843692972E-5,1.884019002E-5,-2.154485323E-3,2.155654326E-3
4.437891667E-2,-1.714535174E-3,-2.746647224E-4,4.224820295E-4,1.787054179E-3
5.442791666E-2,-1.131765021E-4,-2.486686455E-3,-1.193790464E-3,2.760716233E-3
6.447691667E-2,8.238299051E-4,2.254916821E-3,-7.601276739E-4,2.518161961E-3
7.452691667E-2,5.977274850E-4,1.033058390E-3,-6.267032586E-4,1.348052209E-3
8.457591666E-2,-1.571999514E-3,3.145034425E-4,2.964479499E-4,1.630330112E-3
9.462591667E-2,1.631250721E-3,-1.568617765E-3,-9.155566804E-4,2.441267016E-3
1.046749167E-1,3.078644513E-4,-2.072067000E-3,-4.152326146E-4,2.135570251E-3
1.147239167E-1,-1.119589899E-3,2.571335062E-4,1.131385216E-4,1.154296109E-3
1.247739167E-1,1.475160127E-3,-1.087768935E-3,-1.499175094E-3,2.367881884E-3
1.348229167E-1,-2.082024002E-3,1.989779994E-3,-9.260629304E-4,3.025167916E-3
1.448719167E-1,1.574982889E-3,2.159276046E-4,-1.426033792E-3,2.135595516E-3
1.549219167E-1,-3.978868190E-4,2.446896397E-4,-5.868717562E-4,7.500702625E-4
1.649712500E-1,-2.907768823E-3,-1.404776238E-3,-2.394780749E-3,4.020384390E-3
1.750202500E-1,-2.043306595E-3,2.449084073E-3,2.902181586E-4,3.202708419E-3
1.850702500E-1,-5.720095942E-5,6.407713518E-4,4.762318567E-4,8.004103050E-4
1.951192500E-1,2.582524437E-3,-1.068711746E-3,4.373455886E-5,2.795262059E-3
2.051682500E-1,-1.043030992E-3,-9.716581553E-5,-1.389472978E-3,1.740112066E-3
2.152182500E-1,1.656881766E-3,-3.085331991E-5,-1.323959208E-3,2.121102803E-3
2.252672500E-1,1.649316750E-3,-8.510677144E-4,3.169419360E-4,1.882820805E-3
2.353162500E-1,2.697004238E-3,1.500769984E-3,2.460520249E-3,3.947189165E-3
2.453662500E-1,7.187097799E-4,8.126231842E-4,-5.054064095E-4,1.196802334E-3
2.554152500E-1,-1.834196271E-3,7.926495746E-4,5.172687816E-5,1.998810891E-3
2.654642500E-1,6.167016109E-4,-8.210493252E-5,-1.071949373E-4,6.313104239E-4
2.755142500E-1,-1.362027135E-3,1.844773069E-4,5.319636548E-4,1.473816516E-3
2.855632500E-1,4.775573907E-4,-1.171675511E-3,-6.782988785E-4,1.435609255E-3
2.956122500E-1,-6.074144039E-4,1.115447376E-3,-1.384761417E-4,1.277634826E-3
3.056622500E-1,-2.955814998E-4,6.602643989E-4,-1.298578572E-3,1.486480342E-3
3.157112500E-1,6.892554811E-4,1.097555272E-3,-3.901743330E-4,1.353490563E-3
3.257602500E-1,1.604149234E-3,-5.207159556E-4,-6.674604374E-4,1.813820087E-3
3.358102500E-1,-1.703150338E-4,-8.421596140E-4,1.987178344E-3,2.164975242E-3
3.458592500E-1,-1.556544099E-3,1.544800587E-3,-2.843777649E-3,3.591143231E-3
3.559082500E-1,-1.571191475E-3,-2.760199597E-3,2.692934126E-3,4.164041147E-3
3.659582500E-1,1.083196141E-3,1.188532915E-3,-2.097625285E-3,2.643095951E-3
3.760072500E-1,5.953051150E-4,3.169658128E-3,-2.500827890E-3,4.081085758E-3
3.860562500E-1,-3.674606560E-4,1.567235216E-3,2.571602818E-5,1.609942506E-3
3.961062500E-1,-1.471873606E-3,1.546196640E-3,1.008156105E-3,2.360829238E-3
4.061552500E-1,2.324393950E-3,2.135126851E-3,-1.976324245E-3,3.723900030E-3
4.162042500E-1,1.643041178E-4,-1.296622213E-3,6.495525013E-4,1.459501099E-3
4.262542500E-1,-8.678334998E-4,3.000367433E-4,1.961595844E-4,9.389545321E-4
4.363032500E-1,4.051575088E-4,8.848672733E-4,1.539724413E-3,1.821508706E-3
4.463522500E-1,1.601961558E-3,-1.615361311E-3,-2.834836952E-3,3.634827856E-3
4.564022500E-1,-7.882255595E-4,9.886776097E-4,-1.366369892E-3,1.861652392E-3
4.664512500E-1,-1.352612628E-3,2.679575235E-3,-2.015557606E-3,3.615543779E-3
4.765002500E-1,1.747103088E-4,2.128301188E-3,-1.089310157E-3,2.397245557E-3
4.865502500E-1,-5.498983664E-4,5.778423510E-4,6.109998212E-4,1.004793898E-3
4.965992500E-1,3.891322121E-4,2.550287172E-5,5.904934951E-4,7.076417475E-4
5.066482500E-1,6.638342747E-4,2.206393983E-3,-3.714644990E-4,2.333845802E-3
5.166982500E-1,6.646332331E-4,8.346000686E-4,-2.865096321E-4,1.104709183E-3
5.267472500E-1,-2.113796072E-3,3.318688832E-4,-2.664931235E-4,2.156221087E-3
5.367962500E-1,-1.558793243E-3,9.483909234E-4,1.236328739E-3,2.204039580E-3
5.468462500E-1,-6.229180144E-4,-1.056613401E-3,-4.447312967E-4,1.304700984E-3
5.568952500E-1,1.704684808E-3,2.803372219E-3,1.659315312E-4,3.285175698E-3
5.669442500E-1,3.597157774E-4,1.482724212E-3,8.472781628E-4,1.745206812E-3
5.769942500E-1,4.284253228E-4,1.996131614E-4,1.035830006E-3,1.138568168E-3
5.870432500E-1,4.029002041E-3,1.313868910E-3,1.443129266E-3,4.476799195E-3
5.970922500E-1,4.803398624E-4,-1.388858072E-4,-2.251473954E-3,2.306328384E-3
6.071422500E-1,-4.375330172E-5,-3.882404417E-4,1.350522391E-3,1.405900323E-3
6.171912500E-1,1.689165598E-3,-4.918375053E-4,2.056295052E-4,1.771289937E-3
6.272402500E-1,-9.157098248E-4,-1.174469478E-3,9.402513970E-4,1.761242666E-3
6.372902500E-1,-2.027815790E-4,-1.770751085E-3,8.283986244E-4,1.965432282E-3
6.473392500E-1,-7.036813768E-4,1.501637977E-3,2.273850259E-4,1.673854248E-3
6.573882500E-1,-7.252529031E-4,9.176041931E-5,-8.127529873E-5,7.355388651E-4
6.674382500E-1,-9.864036692E-4,2.434833907E-3,2.636464196E-4,2.640249569E-3
6.774872500E-1,-3.762734414E-4,1.322165132E-3,-3.379616537E-4,1.415598961E-3
6.875362500E-1,-7.183897542E-4,1.089811791E-3,-8.785708924E-4,1.573423144E-3
6.975862500E-1,8.025415009E-4,-1.885052770E-4,-3.563836217E-3,3.657941454E-3
7.076352500E-1,1.549507375E-3,1.897074282E-3,2.910383046E-7,2.449461986E-3
7.176842500E-1,-3.463970497E-4,3.234120086E-4,-3.249830566E-3,3.284202331E-3
7.277342500E-1,-2.163680037E-3,1.875827555E-3,2.308340627E-4,2.872894826E-3
7.377832500E-1,-1.595627749E-3,4.443782382E-4,-3.832908405E-4,1.700121114E-3
7.478322500E-1,2.499772236E-4,5.111698993E-4,-9.338476229E-5,5.766315913E-4
7.578822500E-1,2.814335050E-3,1.196134835E-3,-6.811444182E-4,3.132918454E-3
7.679312500E-1,8.616554260E-5,-7.443404756E-4,1.046196558E-4,7.565794848E-4
7.779802500E-1,-1.804412343E-3,5.899029784E-4,-7.055139286E-4,2.025250436E-3
7.880302500E-1,-1.207688823E-3,-4.960792139E-4,-1.066371100E-3,1.685750338E-3
7.980792500E-1,-9.235698963E-5,1.242964994E-3,3.091515973E-4,1.284159842E-3
8.081282500E-1,2.731831628E-4,-2.736534225E-3,1.463827444E-3,3.115451715E-3
8.181782500E-1,-2.337513492E-3,-1.082178671E-3,3.458324936E-4,2.598976743E-3
8.282272500E-1,-1.321069431E-3,3.339066170E-4,7.863998762E-4,1.573258667E-3
8.382762500E-1,1.503745560E-3,4.939623177E-4,2.545666648E-4,1.603138692E-3
8.483262500E-1,-9.688070859E-4,-1.736091450E-3,9.585623047E-4,2.207134428E-3
8.583752500E-1,3.268207656E-4,-1.527033746E-3,6.973061827E-4,1.710227993E-3
8.684242500E-1,-1.137722284E-3,1.198090613E-3,-1.143827569E-3,2.009520992E-3
8.784742500E-1,5.326124374E-4,-2.125534229E-3,7.419566973E-4,2.313454453E-3
8.885232500E-1,1.924755517E-3,1.263339072E-3,3.799230792E-3,4.442393952E-3
8.985722500E-1,1.166819828E-3,-1.748962328E-3,-1.218164572E-3,2.429868857E-3
9.086222500E-1,2.586310962E-3,-1.431748271E-3,8.576720720E-4,3.078069019E-3
9.186712500E-1,1.110919635E-3,6.031733938E-4,-2.920145635E-4,1.297394729E-3
9.287202500E-1,9.590687114E-4,1.938827336E-5,8.336777100E-4,1.270908031E-3
9.387702500E-1,1.569198910E-3,2.742530778E-4,1.327694161E-3,2.073733772E-3
9.488192500E-1,-1.110879239E-3,-1.111365855E-4,-4.832198028E-4,1.216513626E-3
9.588692500E-1,-3.214243799E-3,4.140385427E-4,1.948209829E-4,3.246651557E-3
9.689182500E-1,-1.216291916E-3,1.227133442E-3,8.665956557E-6,1.727801379E-3
9.789672500E-1,1.826665248E-4,2.089731395E-3,4.138564691E-6,2.097703862E-3
9.890172500E-1,-2.940432169E-4,1.833758783E-3,8.526649908E-4,2.043568025E-3
9.990662500E-1,1.216762175E-4,4.696878605E-4,-3.843733575E-4,6.189948838E-4
1.009115250E0,1.110705547E-3,3.160367254E-3,1.893047593E-4,3.355208531E-3
1.019165250E0,-3.513699048E-4,3.107846715E-4,-1.727638650E-3,1.790190835E-3
1.029214250E0,2.547865734E-5,-9.229965508E-5,3.623786615E-4,3.748155315E-4
1.039263250E0,-2.229942475E-4,-1.137057785E-3,-7.913027075E-4,1.403134639E-3
1.049313250E0,5.936950329E-4,-7.959157228E-4,5.332304281E-4,1.127071568E-3
1.059362250E0,1.713021658E-3,-1.262235455E-3,-3.424169263E-4,2.155210175E-3
1.069411250E0,3.256365890E-4,2.389885020E-3,-5.691049155E-4,2.478198943E-3
1.079461250E0,-8.043426787E-4,2.197871450E-3,2.447571023E-4,2.353191895E-3
1.089510250E0,1.824460633E-4,1.548262779E-3,2.563610440E-3,3.000417085E-3
1.099559250E0,-1.143009169E-3,-1.641404815E-3,-9.528276278E-4,2.215527074E-3
1.109609250E0,1.067948528E-3,-7.747649215E-4,9.385967860E-4,1.619178393E-3
1.119658250E0,1.039186260E-3,5.368422717E-4,6.869280478E-4,1.356457832E-3
1.129707250E0,1.146381837E-3,8.156765252E-4,-1.409771969E-3,1.991727018E-3
1.139757250E0,-7.742899470E-4,-1.375305932E-3,-9.069671505E-4,1.820324350E-3
1.149806250E0,-6.641522632E-4,-2.024769783E-4,3.325407160E-4,7.698561445E-4
1.159855250E0,1.316002454E-4,-1.345663331E-4,-9.284660919E-4,9.473521026E-4
1.169905375E0,1.144282403E-3,8.602766320E-5,-6.679765647E-4,1.327770940E-3
1.179954375E0,-8.581483271E-4,2.146582119E-4,-1.860007411E-3,2.059641781E-3
1.190003375E0,2.170224907E-3,-1.323331147E-3,1.610835316E-4,2.546964738E-3
1.200053375E0,7.286558393E-4,-1.864833757E-5,-7.878007600E-4,1.073274024E-3
1.210102375E0,-1.526183914E-3,-2.120612189E-4,5.009505549E-4,1.620234168E-3
1.220151375E0,-1.855485607E-4,1.760808285E-3,2.761441749E-3,3.280310140E-3
1.230201375E0,2.883485868E-4,1.014667097E-3,8.678114973E-4,1.365939611E-3
1.240250375E0,-7.890132838E-5,1.749699935E-3,-5.354080931E-4,1.831484947E-3
1.250299375E0,5.975108361E-4,3.005912527E-3,-8.956550155E-4,3.192918293E-3
1.260349375E0,-1.380542526E-4,-1.540369354E-3,1.480417326E-3,2.140895183E-3
1.270398375E0,-1.135813771E-3,-4.974086769E-4,5.029307795E-4,1.338068639E-3
1.280447375E0,-2.425316256E-3,-3.045955673E-4,2.051026328E-3,3.190869223E-3
1.290497375E0,3.758159874E-4,-5.021668039E-4,2.069136826E-5,6.275645688E-4
1.300546375E0,-7.938443450E-4,-1.461021602E-4,1.573115587E-4,8.223634305E-4
1.310595375E0,1.582345576E-3,-2.578219399E-3,-9.577019373E-4,3.173046768E-3
1.320645375E0,-2.019579755E-3,-4.508863203E-4,-1.054374618E-3,2.322435509E-3
1.330694375E0,1.418814994E-3,1.486232504E-3,-4.424252547E-4,2.101823768E-3
1.340743375E0,6.379865226E-5,7.213726640E-4,-1.413413789E-3,1.588139581E-3
1.350793375E0,1.689873636E-3,-1.134910155E-3,5.634247791E-4,2.112141436E-3
1.360842375E0,2.195424022E-4,-1.945476979E-4,2.108857036E-3,2.129160790E-3
1.370891375E0,6.445383769E-4,7.223747671E-4,-1.835188014E-3,2.074890375E-3
1.380941375E0,-2.127331682E-4,6.083915941E-4,8.985468885E-4,1.105794847E-3
1.390990375E0,-1.865031430E-3,-2.577083651E-3,1.013517613E-5,3.181164111E-3
1.401039375E0,-5.574193783E-4,8.341590874E-4,-2.516535460E-4,1.034343876E-3
1.411089375E0,5.884038401E-4,2.243526280E-3,-4.707474727E-5,2.319880445E-3
1.421138375E0,-4.515605397E-4,2.005706541E-3,-2.489423787E-4,2.070926836E-3
1.431187375E0,-2.672808478E-5,2.147772349E-3,-1.229103305E-3,2.474739459E-3
1.441237375E0,-1.870503766E-4,2.049962059E-4,2.100689453E-4,3.480520788E-4
1.451286375E0,-5.172878446E-5,1.200388186E-3,2.736837487E-4,1.232278563E-3
1.461335375E0,-2.120510762E-4,-1.447745599E-4,7.900706260E-4,8.307448020E-4
1.471385375E0,2.788190497E-3,1.373337582E-3,2.173015848E-3,3.792368684E-3
1.481434375E0,-9.436970577E-4,-6.306911819E-4,1.803635387E-3,2.131064549E-3
1.491483375E0,6.039043365E-5,1.970914192E-3,-9.006698383E-4,2.167799787E-3
1.501533375E0,-1.384640811E-3,1.143736299E-3,-9.241056396E-4,2.019736154E-3
1.511582375E0,3.428944387E-3,5.978387780E-4,1.032497385E-3,3.630581449E-3
1.521631375E0,5.274303840E-4,1.580012497E-3,7.613876369E-4,1.831483943E-3
1.531681375E0,7.787787472E-4,-3.394973464E-4,2.064005821E-4,8.742745482E-4
1.541730375E0,1.611016574E-3,-6.915670820E-4,6.689917063E-4,1.876483236E-3
1.551779375E0,-6.571791891E-5,2.870466560E-4,-5.063683493E-4,5.857674733E-4
1.561829375E0,1.164423084E-4,-2.415263094E-3,1.913646120E-3,3.083682230E-3
1.571878375E0,-1.177681843E-3,9.677708149E-4,4.008384421E-4,1.576130175E-3
1.581927375E0,4.873265279E-4,6.487243809E-4,9.467864875E-4,1.246890180E-3
1.591977375E0,-1.648414414E-3,1.255813520E-3,7.677307585E-4,2.209920405E-3
1.602026375E0,4.099428770E-4,-3.668904072E-3,1.138176536E-3,3.863205415E-3
1.612075375E0,1.323113218E-3,-2.543092705E-4,-1.112648752E-3,1.747366314E-3
1.622125375E0,-3.929173108E-3,1.843133941E-4,1.082328614E-3,4.079682337E-3
1.632174375E0,-1.831696951E-3,2.055547200E-3,-3.673877509E-4,2.777654005E-3
1.642223375E0,-1.853308931E-4,-1.460890751E-3,3.226372646E-4,1.507529148E-3
1.652273375E0,3.663924988E-3,-1.115633175E-3,-1.474124147E-4,3.832846739E-3
1.662322375E0,1.061750343E-3,-8.756825700E-4,1.996166073E-3,2.424626310E-3
1.672371375E0,1.699489076E-6,3.058395814E-3,-7.562830579E-4,3.150516134E-3
1.682421375E0,7.071708678E-4,5.449042656E-4,8.466735599E-4,1.230393194E-3
1.692470375E0,2.787688281E-4,1.570925582E-3,-4.027215473E-4,1.645510221E-3
1.702519375E0,-2.379864920E-3,1.276113093E-3,-1.741226297E-3,3.213112304E-3
1.712569375E0,4.512632731E-4,-1.426002942E-3,-8.500063559E-4,1.720358607E-3
1.722618375E0,1.432105433E-3,2.399893943E-3,1.590248081E-3,3.215479104E-3
1.732668375E0,2.670802642E-3,3.596930765E-4,-1.246480970E-4,2.697795954E-3
1.742717375E0,-1.895986032E-3,-8.413926698E-4,-2.878998639E-4,2.094180267E-3
1.752766375E0,3.967789817E-4,1.595974900E-4,-8.797433693E-4,9.781887931E-4
1.762816375E0,1.209842041E-3,-1.671724021E-4,-7.862664061E-4,1.452542336E-3
1.772865375E0,-1.237617340E-3,-2.338294871E-4,1.615763293E-3,2.048673700E-3
1.782914375E0,1.152569661E-3,1.492431387E-3,-1.256189542E-3,2.265784728E-3
1.792964375E0,-9.785774164E-4,1.115677878E-4,4.702445585E-5,9.860387571E-4
1.803013375E0,-5.692495033E-4,-1.965431497E-3,-2.081373939E-3,2.918746895E-3
1.813062375E0,3.803751897E-4,-7.808804512E-4,1.629825216E-3,1.846832369E-3
1.823112375E0,2.610772615E-3,-1.424033660E-3,1.403989037E-3,3.288645729E-3
1.833161375E0,-1.172138145E-3,-2.062250860E-4,-4.512492451E-4,1.272816758E-3
1.843210375E0,-1.440318534E-3,-3.947769292E-4,4.438391188E-4,1.557998545E-3
1.853260375E0,2.438033232E-3,-1.754531171E-3,-1.129238517E-4,3.005850540E-3
1.863309375E0,-1.455508405E-3,1.657510642E-3,-8.799142670E-4,2.374888495E-3
1.873358375E0,-1.908258768E-3,-5.654869601E-4,-1.379647525E-3,2.421704838E-3
1.883408375E0,-1.766844885E-3,5.689403042E-5,1.171660610E-3,2.120793805E-3
1.893457375E0,-1.931778097E-4,4.595564678E-5,2.375865588E-4,3.096400500E-4
1.903506375E0,2.520141425E-5,-1.468051225E-3,2.030160278E-3,2.505466077E-3
1.913556375E0,4.959846847E-4,1.699004322E-3,2.994386712E-3,3.478357123E-3
1.923605375E0,3.561687190E-4,2.350644208E-4,-8.861051756E-4,9.835109662E-4
1.933654375E0,-9.101220639E-4,3.545899410E-3,-5.873019109E-4,3.707647277E-3
1.943704375E0,-1.276040450E-3,4.837969318E-4,2.267340431E-3,2.646350568E-3
1.953753375E0,1.233287971E-3,-9.046541527E-4,-5.197969731E-4,1.615421693E-3
1.963802375E0,1.717716921E-3,-1.660991926E-3,-8.761279169E-4,2.545004072E-3
1.973852375E0,6.585143856E-4,-1.339419279E-3,8.143570740E-4,1.700253700E-3
1.983901375E0,-1.005694969E-3,-1.358327921E-3,-8.872087346E-5,1.692438627E-3
1.993950375E0,-1.638740534E-3,-7.230741903E-5,-9.340053657E-4,1.887608255E-3
2.004000375E0,1.106445794E-3,-2.589947544E-4,-5.465153954E-4,1.260943954E-3
2.014049375E0,1.126461662E-3,4.183580168E-4,5.559038837E-4,1.323997143E-3
2.024098375E0,2.393627365E-4,-7.166387513E-5,3.162193461E-4,4.030197334E-4
2.034148375E0,9.585399530E-4,2.518463414E-3,-2.178002382E-3,3.464845045E-3
2.044197375E0,2.840862144E-3,-3.345808946E-4,-3.229349386E-5,2.860679109E-3
2.054246375E0,1.499736216E-3,-1.822687685E-3,2.911768388E-3,3.748305519E-3
2.064296375E0,-2.586085349E-3,7.917378098E-4,-1.471383730E-4,2.708567129E-3
2.074345375E0,7.224163273E-4,-5.793822929E-4,1.538841520E-3,1.795996218E-3
2.084394375E0,-1.495197881E-3,3.617787734E-4,-1.017260365E-3,1.844266585E-3
2.094444375E0,-7.635029033E-4,-2.539856359E-5,1.439220156E-3,1.629397566E-3
2.104493375E0,1.267689979E-3,-6.507085636E-4,-1.336859073E-3,1.953881189E-3
2.114542375E0,-2.387772314E-3,-4.809503444E-4,4.502661177E-4,2.476996051E-3
2.124592375E0,1.622948446E-3,-6.077168509E-4,-1.236580079E-3,2.128946153E-3
2.134641375E0,-1.974269398E-4,1.322649885E-3,-3.078320588E-4,1.372275734E-3
2.144690375E0,-1.795323682E-3,2.832179889E-4,-5.440544337E-4,1.897207100E-3
2.154740375E0,-4.676164826E-5,-1.301566605E-3,1.748108305E-3,2.179941496E-3
2.164789375E0,-6.931108655E-4,1.748817973E-3,-2.146764658E-3,2.854359030E-3
2.174837917E0,1.745589543E-3,1.482301392E-3,1.487173722E-4,2.294867562E-3
2.184887917E0,-9.870799258E-4,8.311588317E-4,-2.174672845E-4,1.308603761E-3
2.194936917E0,7.633072091E-4,-2.321538283E-3,-4.765023768E-4,2.489825779E-3
2.204985917E0,9.593159193E-4,-1.454693265E-4,-3.401485446E-4,1.028177704E-3
2.215035917E0,-2.218329348E-3,-3.434834071E-4,-4.249440972E-4,2.284632012E-3
2.225084917E0,1.171075855E-3,3.396174870E-4,1.487738220E-3,1.923570562E-3
2.235133917E0,4.890689161E-4,3.260523081E-4,-3.659579088E-4,6.924042918E-4
2.245183917E0,4.376699217E-4,-1.055862289E-3,7.419170579E-4,1.362659552E-3
2.255232917E0,9.419632261E-4,2.291827463E-3,1.629149658E-3,2.965450462E-3
2.265281917E0,2.683404367E-3,-1.052836888E-4,1.705582370E-3,3.181313388E-3
2.275331917E0,-3.203938017E-3,3.729411401E-4,8.502232376E-4,3.335743315E-3
2.285380917E0,1.706931042E-3,-1.526691485E-3,2.114692237E-3,3.117101816E-3
2.295429917E0,-2.088659676E-5,1.872613095E-3,1.729117590E-3,2.548914218E-3
2.305479917E0,2.049494651E-4,-9.428807534E-4,2.033783123E-3,2.251066900E-3
2.315528917E0,-2.077961690E-4,-1.312363893E-4,-2.286454197E-3,2.299624977E-3
2.325577917E0,-8.669285453E-4,8.820965886E-4,-1.062998199E-3,1.630835573E-3
2.335627917E0,5.305194645E-4,3.316947259E-4,-9.607695974E-4,1.146538492E-3
2.345676917E0,-7.166388677E-4,-4.028049298E-4,3.873225069E-4,9.087583851E-4
2.355725917E0,1.411767676E-3,6.324634887E-4,-3.651331645E-5,1.547394991E-3
2.365775917E0,-3.837356053E-4,6.175497547E-4,-1.526271226E-4,7.429103262E-4
2.375824917E0,-9.854924865E-4,3.226785921E-4,-2.297071740E-3,2.520288772E-3
2.385873917E0,-6.107856752E-4,1.684618648E-3,5.402601091E-4,1.871598279E-3
2.395923917E0,-4.584389389E-4,-3.067092039E-4,-9.183782968E-4,1.071286839E-3
2.405972917E0,-1.111627498E-4,5.428390577E-4,-1.084293239E-3,1.217671231E-3
2.416021917E0,-9.380790871E-4,3.798399121E-4,1.050804858E-4,1.017503140E-3
2.426071917E0,-3.222272266E-3,8.369656280E-5,1.491522067E-3,3.551715324E-3
2.436120917E0,5.823084502E-4,-7.549389265E-4,-6.554037100E-4,1.156965832E-3
2.446169917E0,9.319814853E-4,1.153748948E-3,1.805889886E-3,2.336870643E-3
2.456219917E0,-1.959911548E-3,-1.229490153E-4,-1.577501069E-3,2.518904396E-3
2.466268917E0,1.013241475E-3,3.263265826E-4,-1.050461549E-3,1.495532277E-3
2.476317917E0,-5.258511519E-4,5.431985483E-5,-4.851949052E-4,7.175543022E-4
2.486367917E0,8.348007395E-5,-1.529195812E-3,-2.303303918E-4,1.548696498E-3
2.496416917E0,-1.009198604E-3,2.952623181E-4,2.640493913E-3,2.842159348E-3
2.506465917E0,-3.430810990E-3,4.358771257E-4,-9.659588104E-4,3.590756096E-3
2.516515917E0,-2.187976846E-3,1.455912367E-3,-1.662363531E-3,3.109722819E-3
2.526564917E0,-3.287063446E-3,-1.194199082E-3,3.584431252E-4,3.515590849E-3
2.536613917E0,-4.489746061E-4,-1.100408379E-3,3.797225188E-3,3.978868675E-3
2.546663917E0,8.032437181E-4,1.111613121E-3,-9.463974857E-4,1.666299013E-3
2.556712917E0,-3.037298098E-3,8.811615407E-5,1.793105621E-4,3.043862098E-3
2.566761917E0,-7.821333129E-4,-1.194994897E-3,7.529554423E-4,1.614523837E-3
2.576811917E0,-2.151527442E-3,-1.053913496E-3,1.434762264E-3,2.792552013E-3
2.586860917E0,6.093716947E-4,-1.128748525E-3,-1.735198312E-3,2.157850846E-3
2.596909917E0,-8.676688303E-4,-6.198449992E-4,2.056650701E-4,1.085981189E-3
2.606959917E0,-1.319074538E-3,4.057381302E-4,1.676528947E-3,2.171481148E-3
2.617008917E0,3.021912999E-4,8.672196418E-5,2.093733987E-3,2.117206246E-3
2.627057917E0,-2.077342942E-3,4.598307423E-4,8.449779125E-4,2.289276236E-3
2.637107917E0,-9.386036545E-4,-2.025053836E-4,-6.216473994E-4,1.143866574E-3
2.647156917E0,-1.515710610E-3,-2.244350966E-3,3.671842860E-4,2.733004612E-3
2.657205917E0,-1.559824916E-3,-1.392682549E-3,-2.329578623E-3,3.130424094E-3
2.667255917E0,-7.910726708E-5,1.503238920E-3,-1.071501174E-3,1.847728329E-3
2.677304917E0,-5.455978680E-5,4.839990288E-5,-2.310695127E-4,2.423065014E-4
2.687353917E0,-1.153912628E-3,1.581581309E-3,1.486972906E-4,1.963421675E-3
2.697403917E0,1.177406171E-3,-7.503232919E-4,-1.276643598E-4,1.401987348E-3
2.707452917E0,1.592326676E-3,-4.680282436E-4,-6.738786469E-4,1.791275275E-3
2.717501917E0,-3.166089533E-3,-3.833463416E-5,-3.388876212E-4,3.184405328E-3
2.727551917E0,-3.011892550E-3,-8.254311979E-5,-7.404923090E-4,3.102682542E-3
2.737600917E0,-7.894117152E-5,8.849957958E-4,-3.289751767E-4,9.474565605E-4
2.747649917E0,-1.595611451E-3,-1.698803157E-3,-1.159223029E-4,2.333526526E-3
2.757699917E0,-2.211335232E-5,-2.695220057E-3,3.251779126E-4,2.714855582E-3
2.767748917E0,1.679380191E-3,8.766115643E-4,1.244234852E-3,2.266469949E-3
2.777798917E0,1.186464797E-3,6.038751453E-4,-9.956414578E-5,1.335019447E-3
2.787847917E0,2.964363957E-4,1.065400895E-3,4.929891438E-4,1.210781524E-3
2.797896917E0,-1.846814528E-3,1.524158288E-3,-2.392906696E-3,3.385230397E-3
2.807946917E0,-1.594879664E-3,-2.051401883E-3,-4.144442210E-4,2.631283877E-3
2.817995917E0,-2.190088853E-3,2.971994691E-4,6.364056026E-4,2.299962782E-3
2.828044917E0,1.207305584E-3,6.852219813E-4,-6.126170047E-4,1.517371257E-3
2.838094917E0,-1.267977059E-3,5.713566206E-4,-9.539554594E-4,1.686489024E-3
2.848143917E0,-1.856269315E-3,1.435286365E-3,2.039870014E-4,2.355290516E-3
2.858192917E0,-7.777126739E-4,-1.742460299E-3,6.132847047E-4,2.004276185E-3
2.868242917E0,7.810356328E-4,1.126296818E-3,1.469757408E-3,2.009663659E-3
2.878291917E0,-1.419084263E-3,2.156114206E-4,1.774601173E-3,2.282432420E-3
2.888340917E0,8.824195247E-4,-3.990465775E-4,-8.451504400E-4,1.285372185E-3
2.898390917E0,-3.063618438E-3,-1.646885183E-3,-1.284836675E-3,3.707936626E-3
2.908439917E0,-2.430584980E-3,6.599449553E-4,-9.045372717E-4,2.676090127E-3
2.918488917E0,6.449699868E-4,-4.249997437E-5,-1.554193324E-3,1.683243720E-3
2.928538917E0,7.464364171E-4,-1.001504250E-3,9.398570401E-4,1.563172845E-3
2.938587917E0,1.403933857E-3,-2.018176485E-3,4.503705422E-4,2.499379968E-3
2.948636917E0,-5.036885268E-4,-2.506333869E-3,8.724816726E-4,2.701228584E-3
2.958686917E0,7.579585072E-4,1.724692062E-3,7.486261893E-6,1.883910786E-3
2.968735917E0,-8.370087016E-4,7.861941122E-4,-1.325159566E-3,1.753491553E-3
2.978784917E0,-2.362864092E-3,1.771576703E-3,-1.784416148E-3,3.450471232E-3
2.988834917E0,-2.415594645E-3,-3.293910995E-4,2.647083951E-3,3.598701075E-3
2.998883917E0,1.139052038E-4,-6.171041168E-4,1.285083941E-3,1.430116297E-3
3.008932917E0,-3.074068809E-4,3.224592656E-4,-2.387148794E-3,2.428365362E-3
3.018982917E0,7.431400008E-4,-8.777570911E-4,-9.284388507E-4,1.478077559E-3
3.029031917E0,-6.736616488E-4,-2.249817364E-3,-1.033633715E-3,2.565910529E-3
3.039080917E0,-7.910538698E-4,2.619419247E-4,2.723462647E-3,2.848092096E-3
3.049130917E0,5.149603821E-4,-7.074489258E-4,6.834813394E-4,1.110321989E-3
3.059179917E0,-1.696441905E-3,1.196593978E-3,-1.206330140E-3,2.401038252E-3
3.069228917E0,6.719073281E-4,5.329339765E-4,-1.551804598E-4,8.715268533E-4
3.079278917E0,1.563334808E-4,6.196787581E-5,-3.372570791E-4,3.768587431E-4
3.089327917E0,-2.266290830E-4,-2.373226453E-3,1.274221810E-3,2.703184373E-3
3.099376917E0,2.340740524E-3,-1.446840819E-3,1.005579834E-4,2.753638768E-3
3.109426917E0,1.542853133E-4,-1.938235946E-4,-1.208385685E-3,1.233518345E-3
3.119475917E0,7.782228058E-4,7.730284706E-4,5.733662983E-4,1.237720754E-3
3.129524917E0,1.383026713E-3,-1.321547665E-3,3.725639544E-4,1.948859928E-3
3.139574917E0,-1.038971357E-3,3.727180883E-4,-7.057749899E-4,1.310152125E-3
3.149623917E0,-1.432852820E-3,-1.090156380E-3,-2.527713077E-4,1.818076310E-3
3.159672917E0,1.040392788E-3,-1.108667813E-3,1.787784044E-3,2.346856037E-3
3.169726000E0,-2.943835279E-4,-6.079934537E-4,1.487379661E-3,1.633589899E-3
3.179775000E0,-1.987252152E-3,-1.073646359E-3,2.697309479E-3,3.518148099E-3
3.189824000E0,7.198512321E-4,-1.111463644E-3,-1.293703914E-3,1.851271737E-3
3.199874000E0,1.731643453E-3,-1.854136586E-3,3.828419140E-4,2.565731759E-3
3.209923000E0,-4.140654637E-4,-1.409122255E-3,-6.342192646E-4,1.599784302E-3
3.219972000E0,-1.537607866E-3,2.400008962E-3,-6.240162766E-4,2.917820639E-3
3.230022000E0,1.250721747E-3,-1.244527288E-3,-3.039021976E-7,1.764412976E-3
3.240071000E0,-1.138282474E-3,1.193300821E-3,-1.299888128E-3,2.099848325E-3
3.250120000E0,-2.204612130E-3,1.003392972E-4,3.629896091E-4,2.236547356E-3
3.260170000E0,1.820144476E-3,-1.784432679E-4,-2.735437592E-4,1.849214456E-3
3.270219000E0,-5.889510503E-4,5.470020697E-4,7.698826957E-4,1.113011217E-3
3.280268000E0,-2.443362027E-3,1.335917506E-3,-4.820516042E-4,2.826140005E-3
3.290318000E0,2.429687011E-4,2.786428668E-4,1.413852675E-3,1.461388047E-3
3.300367000E0,-4.936949699E-5,2.112923190E-3,2.857217914E-4,2.132725650E-3
3.310416000E0,4.438479373E-4,2.773653716E-3,-4.676864774E-4,2.847610677E-3
3.320466000E0,1.973580220E-4,-1.086491160E-3,5.840540980E-4,1.249212720E-3
3.330515000E0,1.054096967E-3,-4.087169655E-4,-8.588465280E-4,1.419784256E-3
3.340564000E0,2.820613096E-3,1.857291441E-3,1.988397213E-3,3.919070452E-3
3.350614000E0,-9.403030854E-4,3.249081783E-4,1.784665277E-3,2.043224258E-3
3.360663000E0,-6.189204869E-4,2.520457376E-3,3.343168646E-5,2.595551123E-3
3.370712000E0,1.339834416E-3,2.433105838E-3,-1.210797112E-3,3.030047842E-3
3.380762000E0,-5.474846694E-4,1.645823009E-3,5.726370728E-4,1.826577690E-3
3.390811000E0,-6.833059597E-4,1.284432132E-3,-7.616066723E-4,1.642168584E-3
3.400860000E0,-1.476154081E-3,1.150462776E-5,-7.656730595E-4,1.662954738E-3
3.410910000E0,1.062370953E-3,-1.242578030E-3,7.914771559E-4,1.816333750E-3
3.420959000E0,-1.178286038E-4,-2.437522635E-4,5.065051373E-4,5.743223833E-4
3.431008000E0,-1.815860160E-3,5.132611841E-5,-3.198609920E-5,1.816866974E-3
3.441058000E0,-1.019019866E-3,-1.753419638E-4,-9.332621121E-4,1.392883506E-3
3.451107000E0,1.692826045E-4,2.244139556E-3,-1.871227520E-3,2.926826161E-3
3.461156000E0,1.869993284E-4,-1.078173518E-4,-2.534976229E-4,3.329480065E-4
3.471206000E0,-1.115410123E-4,-5.277977325E-4,1.587545499E-3,1.676696918E-3
3.481255000E0,-9.962590411E-4,-6.268955767E-4,-5.498633254E-5,1.178369058E-3
3.491304000E0,1.005639206E-3,6.845593452E-5,-2.097364515E-3,2.327001147E-3
3.501354000E0,-7.500034408E-4,-6.949217059E-4,1.744531095E-3,2.022080631E-3
3.511403000E0,8.606762858E-4,3.905827180E-4,-4.378159065E-5,9.461687779E-4
3.521452000E0,3.101811162E-4,-4.086703993E-4,1.402414870E-3,1.493315535E-3
3.531502000E0,3.016589908E-4,-1.016137190E-3,7.978773210E-4,1.326703115E-3
3.541551000E0,6.933407858E-4,1.360559836E-4,8.452192415E-4,1.101647966E-3
3.551600000E0,-1.574074500E-3,1.291601453E-3,8.092665812E-4,2.191085860E-3
3.561650000E0,-2.070980612E-3,-1.329541206E-3,-1.675305888E-3,2.977127867E-3
3.571699000E0,-1.027820515E-3,9.061824530E-4,-6.957951700E-4,1.536786442E-3
3.581748000E0,3.002230544E-3,1.774090342E-4,-1.723280293E-4,3.012400895E-3
3.591798000E0,7.244288572E-4,2.660923637E-4,1.238348312E-3,1.459146619E-3
3.601847000E0,2.650683746E-3,1.335619017E-4,7.137902430E-4,2.748355802E-3
3.611896000E0,3.318693489E-4,8.057435043E-4,-2.358930069E-4,9.027764785E-4
3.621946000E0,1.781659899E-3,1.221540384E-3,-8.670811076E-5,2.161941535E-3
3.631995000E0,2.761702985E-3,3.666658886E-4,7.511223666E-4,2.885417138E-3
3.642044000E0,1.970805926E-3,-2.160878386E-3,1.011886867E-3,3.094735276E-3
3.652094000E0,-1.678257366E-3,-8.269008249E-4,-1.199566177E-4,1.874753944E-3
3.662143000E0,4.175154492E-3,6.933659315E-4,1.552321715E-3,4.508034390E-3
3.672192000E0,1.159923617E-3,1.692306250E-5,6.164869992E-4,1.313683907E-3
3.682242000E0,-8.354294114E-4,1.103690360E-3,1.299338182E-3,1.898513741E-3
3.692291000E0,9.331757901E-4,5.360599607E-5,7.560534286E-4,1.202209401E-3
3.702340000E0,-5.034153583E-4,6.052786484E-4,2.244378906E-3,2.378450323E-3
3.712390000E0,7.109860890E-4,7.903762162E-5,2.091910574E-4,7.453248036E-4
3.722439000E0,-1.039242139E-3,-5.256412551E-4,-2.089046407E-3,2.391743683E-3
3.732488000E0,-7.430986734E-4,-3.342200536E-3,7.717213011E-4,3.509708511E-3
3.742538000E0,-7.728476194E-4,-2.190102823E-4,-1.752973069E-3,1.928256603E-3
3.752587000E0,-8.713845746E-4,-8.280752227E-4,3.774418030E-3,3.961218388E-3
3.762636000E0,2.587585943E-3,9.659626521E-4,-8.258787566E-4,2.882838979E-3
3.772686000E0,-1.101691043E-3,2.537759952E-3,-7.590334280E-4,2.868811683E-3
3.782735000E0,1.971760532E-3,-2.294620499E-4,-1.608820166E-3,2.555150633E-3
3.792784000E0,2.745279635E-4,-1.577287912E-3,7.560668746E-4,1.770547904E-3
3.802834000E0,1.405808434E-4,-5.676778965E-4,-1.991823548E-3,2.075905156E-3
3.812883000E0,-2.090922208E-4,-5.455734208E-4,-2.246421762E-3,2.321159332E-3
3.822932000E0,9.333335329E-4,1.099175308E-3,2.338844351E-4,1.460821608E-3
3.832982000E0,3.080232709E-4,-1.559725031E-3,-8.686642395E-4,1.811683766E-3
3.843031000E0,-6.669579307E-4,-8.010654710E-4,-2.442520577E-3,2.655644092E-3
3.853080000E0,-1.305973274E-4,-4.758937284E-4,-9.707477875E-5,5.029453403E-4
3.863130000E0,-8.920743130E-5,2.292824443E-3,-1.188373892E-3,2.584034520E-3
3.873179000E0,-1.611127518E-4,-9.789504111E-5,-4.488140985E-4,4.868006295E-4
3.883228000E0,3.074987617E-4,4.377895966E-4,-5.220326129E-4,7.474846275E-4
3.893278000E0,2.672652015E-3,9.320722893E-4,2.004830167E-4,2.837608322E-3
3.903327000E0,2.980371646E-4,-1.258837525E-3,1.127623487E-3,1.716109785E-3
3.913376000E0,-1.462844899E-3,-2.610924654E-3,2.320024651E-4,3.001777455E-3
3.923426000E0,1.236004755E-3,-8.765971288E-4,-1.675770385E-3,2.259277908E-3
3.933475000E0,-1.429819502E-3,1.401980408E-4,1.410380355E-4,1.443582705E-3
3.943524000E0,1.068201149E-3,-1.514424104E-3,4.219405819E-4,1.900675647E-3
3.953574000E0,1.623203978E-3,1.999350265E-3,1.489069313E-3,2.974814289E-3
3.963623000E0,-7.954817847E-4,2.541239373E-3,-1.131886733E-3,2.893416043E-3
3.973672000E0,-7.813670090E-4,-3.030892229E-3,-8.887401200E-4,3.253721117E-3
3.983722000E0,3.335752292E-3,6.300583482E-5,4.637573147E-5,3.336669566E-3
3.993771000E0,3.290432796E-4,-1.535089687E-4,1.420034096E-3,1.465718703E-3
4.003820000E0,2.741451375E-3,1.539639197E-4,1.450982061E-3,3.105577156E-3
4.013870000E0,-4.831042606E-4,-2.159257885E-3,1.694661216E-3,2.787052382E-3
4.023919000E0,-7.608180167E-4,-4.970263690E-4,2.804250107E-4,9.510612244E-4
4.033968000E0,7.465311792E-4,-2.690938301E-3,-1.613933709E-4,2.797231768E-3
4.044018000E0,-1.354159787E-3,-5.139769055E-4,-2.032801509E-3,2.496037452E-3
4.054067000E0,2.923942171E-3,1.231192611E-3,-2.064057626E-4,3.179288663E-3
4.064116000E0,-1.736611477E-3,-2.459375188E-3,-2.132399473E-3,3.689373016E-3
4.074166000E0,2.683170605E-3,-1.106223091E-3,2.404828090E-3,3.769128834E-3
4.084215000E0,-4.103556857E-4,-1.098085195E-3,8.230644744E-4,1.432347030E-3
4.094264000E0,-8.367278497E-4,1.725398470E-3,1.775677083E-3,2.613454128E-3
4.104314000E0,-4.848830868E-4,1.226546243E-3,-6.574215950E-4,1.473679221E-3
4.114363000E0,-7.101864321E-4,2.813902684E-4,9.948035004E-4,1.254264428E-3
4.124413000E0,-1.254909206E-3,6.233127788E-4,2.844079863E-4,1.429756566E-3
4.134462000E0,6.782793207E-4,-2.173006069E-3,1.451246208E-4,2.281025946E-3
4.144511000E0,-4.658582620E-4,3.306372091E-4,-1.381464535E-3,1.494921117E-3
4.154561000E0,2.529289341E-4,-5.551301874E-4,2.810883569E-3,2.876318655E-3
4.164610000E0,3.341895354E-4,-1.425622962E-3,-2.105121035E-3,2.564296794E-3
4.174656417E0,6.596277817E-4,1.592244953E-4,-1.265159925E-3,1.435649987E-3
4.184705417E0,1.820005360E-3,6.428030320E-4,4.414491705E-4,1.980023388E-3
4.194755417E0,2.120942576E-3,4.113744944E-4,-5.473825731E-4,2.228733736E-3
4.204804417E0,1.667771372E-3,-8.753202856E-4,-5.958793918E-4,1.975530106E-3
4.214854417E0,-7.996474160E-4,-2.018082887E-3,1.001484576E-3,2.390620397E-3
4.224903417E0,-1.262923004E-3,2.015819773E-4,-1.196819008E-3,1.751566598E-3
4.234952417E0,-1.841627876E-3,-6.540915929E-4,7.651317865E-4,2.098774809E-3
4.245002417E0,4.615429789E-4,1.430072356E-3,-1.538738608E-3,2.150777852E-3
4.255051417E0,2.006442752E-3,-1.000327989E-3,-6.015722174E-4,2.321283640E-3
4.265100417E0,-7.974292967E-4,-6.477134302E-4,2.810578444E-4,1.065091396E-3
4.275149417E0,2.342171269E-3,5.323332734E-4,1.792934258E-3,2.997291814E-3
4.285199417E0,3.722622350E-4,-2.644401742E-3,-2.005628776E-4,2.677996492E-3
4.295248417E0,-2.977147233E-6,4.789535888E-4,1.125691342E-3,1.223350482E-3
4.305298417E0,-1.189477975E-3,1.377609093E-3,1.330488827E-3,2.254521054E-3
4.315347417E0,1.519562793E-4,-3.546309192E-3,5.669886013E-5,3.550016106E-3
4.325396417E0,8.084973088E-4,1.367016230E-3,-3.323421115E-3,3.683412708E-3
4.335446417E0,-3.126323223E-3,-9.022629820E-4,1.054016757E-3,3.420369382E-3
4.345495417E0,-6.534429849E-4,8.986587636E-4,2.113060909E-4,1.131028546E-3
4.355544417E0,2.319710096E-3,-1.069417223E-3,2.031044103E-3,3.263410529E-3
4.365594417E0,4.444085353E-4,-8.601732552E-4,-1.047130791E-3,1.426141602E-3
4.375643417E0,-3.655836917E-5,3.092084080E-5,6.162796053E-4,6.181368495E-4
4.385692417E0,-2.174723777E-4,-3.443509340E-4,-9.228498675E-4,1.008723787E-3
4.395742417E0,6.262170500E-4,-5.752826110E-5,-1.250152476E-3,1.399406484E-3
4.405791417E0,-3.541143378E-4,-4.388969392E-4,-2.341445070E-4,6.106153762E-4
4.415840417E0,1.716227038E-3,2.444698475E-4,1.574408263E-3,2.341786098E-3
4.425890417E0,1.559742843E-3,1.416761428E-3,-9.164308431E-4,2.297793761E-3
4.435939417E0,-8.062094566E-4,9.343633428E-5,-1.245331252E-3,1.486456849E-3
4.445988417E0,-1.886672457E-3,-2.096048556E-4,-2.363240113E-3,3.031232586E-3
4.456038417E0,-7.484373637E-4,1.030503772E-4,-1.129131299E-3,1.358571072E-3
4.466087417E0,-1.800480648E-3,6.103855558E-4,-5.344065721E-4,1.974814289E-3
4.476136417E0,1.724212896E-3,2.447334118E-4,6.283295806E-4,1.851378572E-3
4.486186417E0,-8.175424300E-4,-3.244642401E-3,2.793048043E-3,4.358577441E-3
4.496235417E0,1.197671518E-3,-4.491223954E-4,-6.165971281E-4,1.419971834E-3
4.506284417E0,-4.948587157E-4,-7.821936160E-4,-4.391201655E-4,1.024469873E-3
4.516334417E0,-7.092431188E-4,1.248787157E-4,-7.845321670E-4,1.064946579E-3
4.526383417E0,-5.920026451E-4,1.940780785E-3,5.783678498E-4,2.109883067E-3
4.536432417E0,9.808603209E-4,-4.914840683E-4,1.602516277E-4,1.108748909E-3
4.546482417E0,-7.147991564E-4,-2.029008698E-3,7.930453867E-4,2.292757099E-3
4.556531417E0,1.675920561E-3,2.043182030E-4,-8.610439836E-4,1.895218298E-3
4.566580417E0,9.235908510E-4,-1.653542276E-3,4.093284952E-5,1.894438602E-3
4.576630417E0,1.825070824E-3,2.254114021E-3,3.184341476E-4,2.917758358E-3
4.586679417E0,3.516990691E-4,-1.382208895E-3,-1.709145727E-5,1.426354017E-3
4.596728417E0,-2.539037378E-4,-4.977732897E-4,-1.100731781E-3,1.234445547E-3
4.606778417E0,-8.665222558E-4,1.997076906E-4,-2.115738345E-3,2.295014755E-3
4.616827417E0,-1.040959265E-3,1.010107342E-3,-2.019332023E-3,2.486285353E-3
4.626876417E0,9.279528749E-4,1.184036955E-3,1.443557558E-4,1.511250685E-3
4.636926417E0,-1.551716356E-3,2.822903916E-4,1.177241793E-4,1.581572160E-3
4.646975417E0,-6.130801048E-4,-1.408956945E-3,-1.105591422E-3,1.892976302E-3
4.657024417E0,1.634627930E-3,1.852111891E-4,9.820605628E-4,1.915921346E-3
4.667074417E0,-3.096247674E-4,-1.177994069E-3,-6.535517168E-4,1.382268921E-3
4.677123417E0,-8.401264204E-4,-2.585208509E-3,5.749645061E-4,2.778434743E-3
4.687172417E0,-1.480020816E-3,2.132681664E-3,8.190117660E-4,2.722053079E-3
4.697222417E0,-1.178139937E-4,5.923090503E-4,-4.912634613E-4,7.784920915E-4
4.707271417E0,8.681361796E-4,-1.378692221E-3,2.527225297E-5,1.629445106E-3
4.717320417E0,-2.007278847E-3,-2.641594037E-4,-9.031057125E-4,2.216878095E-3
4.727370417E0,-2.527690958E-4,2.405526116E-3,-1.256910618E-4,2.422033517E-3
4.737419417E0,-1.049054321E-3,3.546262160E-4,-1.033205190E-4,1.112182472E-3
4.747468417E0,-6.033263053E-4,-5.770940334E-6,-1.608614461E-3,1.718044358E-3
4.757518417E0,1.553035341E-3,2.765241079E-4,-1.630186103E-3,2.268455661E-3
4.767567417E0,-9.351986228E-5,4.526274279E-5,1.266994630E-3,1.271247448E-3
4.777616417E0,-1.630696468E-3,-1.254626084E-3,-8.353047888E-4,2.220583633E-3
4.787666417E0,-1.904087374E-3,-1.667055301E-3,8.273555432E-4,2.662543765E-3
4.797715417E0,-1.087029465E-3,-8.478672244E-4,-2.666710643E-4,1.404145770E-3
4.807764417E0,2.194288652E-3,-4.359334707E-5,5.702524213E-4,2.267595840E-3
4.817814417E0,-6.020306610E-4,-2.773067448E-3,1.186507987E-3,3.075734903E-3
4.827863417E0,1.026047627E-3,5.000680685E-4,-1.249665860E-3,1.692485322E-3
4.837912417E0,1.165597234E-3,5.879523233E-4,1.124275965E-3,1.722875878E-3
4.847962417E0,1.272233203E-5,2.241642680E-3,-5.757305189E-4,2.314430684E-3
4.858011417E0,-1.260534860E-3,1.193156000E-3,1.869988046E-4,1.745719888E-3
4.868060417E0,9.260910447E-4,6.073252298E-4,4.339455045E-4,1.189452504E-3
4.878110417E0,8.616425330E-4,2.475325018E-4,-1.910168910E-3,2.110081861E-3
4.888159417E0,-2.378473291E-4,-1.992475241E-3,9.215953760E-4,2.208136539E-3
4.898208417E0,-4.738033749E-4,-1.155443490E-3,2.281082561E-4,1.269477322E-3
4.908258417E0,4.627923481E-4,8.165333420E-4,6.863989984E-4,1.162775576E-3
4.918307417E0,7.592021720E-4,-2.047889866E-4,4.973145551E-4,9.304021893E-4
4.928356417E0,-3.910338273E-4,2.897842787E-4,1.049672137E-4,4.978960717E-4
4.938406417E0,-4.067465197E-4,-2.710266504E-3,1.728163799E-3,3.239990335E-3
4.948455417E0,-2.516161185E-4,3.461469896E-4,-8.827218553E-4,9.809823053E-4
4.958504417E0,4.106527194E-5,-6.762403063E-4,1.619051560E-3,1.755082694E-3
4.968554417E0,7.315865951E-4,-1.805857755E-3,2.865884220E-3,3.465491818E-3
4.978603417E0,7.494297461E-4,5.289353430E-4,-1.166674308E-3,1.484097869E-3
4.988652417E0,1.742088236E-3,-9.558727033E-4,9.078107541E-4,2.184647434E-3
4.998702417E0,-1.150371041E-3,6.038928404E-5,1.223927946E-3,1.680773636E-3
5.008751417E0,-1.623961027E-3,-1.719226129E-4,6.199168274E-5,1.634212278E-3
5.018800417E0,1.413107850E-3,-6.936360151E-4,2.491593361E-3,2.947209221E-3
5.028850417E0,7.651841734E-4,-1.375079621E-3,2.109489404E-3,2.631785768E-3
5.038899417E0,5.121838185E-4,-1.207034104E-3,2.801644849E-3,3.093295564E-3
5.048948417E0,-3.893846879E-4,2.931477502E-5,-9.020528523E-4,9.829441182E-4
5.058998417E0,2.124897437E-4,9.963084012E-4,7.475091261E-4,1.263547472E-3
5.069047417E0,1.571741886E-4,1.012923196E-3,-1.180449966E-3,1.563387108E-3
5.079096417E0,-1.329402323E-3,-7.205284201E-4,-2.723119687E-4,1.536432735E-3
5.089146417E0,-2.129820641E-3,-2.518351190E-3,1.242041821E-3,3.524329236E-3
5.099195417E0,2.628715476E-3,2.968763001E-4,8.969195187E-5,2.646946399E-3
5.109244417E0,3.971724072E-5,2.171468921E-3,-2.662368584E-3,3.435849417E-3
5.119294417E0,2.169979736E-3,-2.316223923E-3,1.846895670E-3,3.672155897E-3
5.129343417E0,8.134585805E-4,2.683154307E-4,3.090865212E-4,9.106275365E-4
5.139392417E0,5.633877008E-4,-4.310305230E-4,-1.930898172E-3,2.057075780E-3
5.149442417E0,1.112590311E-3,2.288040705E-4,-4.301845620E-4,1.214605805E-3
5.159491417E0,-1.755806734E-4,1.344402321E-3,9.991340339E-4,1.684195651E-3
5.169540417E0,-2.408915316E-4,3.434373066E-4,2.695437288E-4,4.986298580E-4
5.179590417E0,7.705769967E-4,8.867224678E-4,-7.658933173E-4,1.402375918E-3
5.189639417E0,-1.755894395E-3,1.680759247E-3,-1.099266810E-3,2.667677697E-3
5.199688417E0,7.038011099E-4,-1.475618687E-3,-2.299287356E-3,2.821260154E-3
5.209738417E0,-9.217376937E-4,1.685833558E-5,2.173306420E-3,2.360751020E-3
5.219787417E0,-1.698848093E-3,-6.609163247E-4,-1.537542208E-3,2.384728763E-3
5.229836417E0,-6.854509702E-4,-5.798502825E-4,2.065725857E-5,8.980512819E-4
5.239886417E0,-2.655924065E-3,3.099115565E-4,-3.489895025E-4,2.696622236E-3
5.249935417E0,1.009088010E-6,1.255038660E-3,-2.049624687E-3,2.403348584E-3
5.259984417E0,-1.682108617E-3,1.027714461E-5,2.166691935E-3,2.743018221E-3
5.270034417E0,-8.573229425E-4,-2.645903733E-3,1.074792352E-3,2.981775945E-3
5.280083417E0,3.030163934E-4,8.050203323E-4,7.890352863E-4,1.167241772E-3
5.290132417E0,-1.111535472E-3,-4.747551866E-4,1.533008181E-3,1.952182797E-3
5.300182417E0,5.691854749E-4,2.213949338E-4,9.564337670E-4,1.134792215E-3
5.310231417E0,1.033360139E-3,1.546065323E-4,1.844060840E-3,2.119503890E-3
5.320280417E0,-1.668416895E-3,2.933082171E-3,-9.546549991E-4,3.506843613E-3
5.330330417E0,-5.040206015E-4,2.505246084E-3,-1.511836308E-3,2.969165494E-3
5.340379417E0,-4.448983818E-4,-2.239441499E-3,3.814048250E-4,2.314843934E-3
5.350428417E0,-1.568560954E-3,6.688842550E-4,1.507863170E-3,2.276277872E-3
5.360478417E0,-3.032930545E-4,-2.419317141E-3,8.458013181E-4,2.580787085E-3
5.370527417E0,3.520434257E-4,-7.030828856E-4,-7.104290416E-4,1.059702572E-3
5.380576417E0,-3.805921879E-4,-1.221067738E-3,4.597639199E-4,1.359131964E-3
5.390626417E0,-8.575931424E-4,2.342034131E-4,3.762044944E-4,9.653222562E-4
5.400675417E0,-1.228571520E-3,-2.043331973E-3,1.456382568E-3,2.793858214E-3
5.410724417E0,3.915481211E-4,6.743273698E-4,3.878545249E-5,7.807250759E-4
5.420774417E0,1.368928235E-3,-2.150753979E-3,1.701929374E-3,3.065333715E-3
5.430823417E0,4.507696431E-4,1.442345791E-3,-4.322180466E-4,1.571740147E-3
5.440872417E0,8.398575010E-4,-6.825905293E-4,-1.050337683E-3,1.508144457E-3
5.450922417E0,-1.845608815E-3,-1.253583003E-3,-2.159432974E-3,3.104978745E-3
5.460971417E0,-1.075955224E-3,-6.796717644E-4,8.515369263E-4,1.531257160E-3
5.471020417E0,1.641874434E-3,-2.418429125E-3,-9.619519114E-4,3.077320681E-3
5.481070417E0,2.199007664E-3,1.387494151E-3,1.722883899E-4,2.605850727E-3
5.491119417E0,-9.048446082E-4,-8.104280569E-4,-3.467643983E-4,1.263243028E-3
5.501168417E0,1.902127173E-3,-4.271990620E-4,3.214227618E-4,1.975828791E-3
5.511218417E0,2.031694865E-3,1.736413687E-4,-2.935866651E-4,2.060128268E-3
5.521267417E0,1.701453002E-4,6.934902631E-4,2.314180601E-3,2.421840214E-3
5.531316417E0,-9.465176845E-4,1.392428763E-3,6.197899347E-4,1.794127407E-3
5.541366417E0,4.548376892E-4,-7.775151171E-4,2.256036270E-3,2.429219367E-3
5.551415417E0,5.520159029E-4,1.789690461E-3,-1.310325228E-3,2.285752766E-3
5.561464417E0,-1.132417819E-4,-2.387211658E-3,1.850047847E-3,3.022297179E-3
5.571514417E0,1.662259456E-4,1.615163404E-3,-6.182438228E-4,1.737414548E-3
5.581563417E0,-1.571753062E-3,-1.971315593E-3,1.013423316E-4,2.523244563E-3
5.591612417E0,-1.994702965E-3,-1.009882893E-3,-9.755575447E-4,2.439347433E-3
5.601662417E0,8.460910176E-4,8.434108458E-4,4.761315067E-4,1.286045519E-3
5.611711417E0,1.339582959E-3,-5.824239925E-4,1.691773999E-3,2.235128515E-3
5.621760417E0,9.931055829E-4,-1.354208216E-3,2.081269631E-4,1.692174762E-3
5.631810417E0,-6.951652467E-4,-8.355476893E-4,3.236701014E-5,1.087401621E-3
5.641859417E0,1.145345392E-3,3.801854327E-4,-2.371448791E-4,1.229875897E-3
5.651908417E0,-1.034366665E-3,-1.064063050E-3,-1.310735475E-3,1.979942438E-3
5.661958417E0,1.917983172E-5,-2.492849249E-3,2.586268121E-3,3.592136974E-3
5.672007417E0,2.003377303E-3,-9.032762609E-4,-4.502872471E-4,2.243253715E-3
5.682056417E0,-2.869412419E-4,5.984799936E-4,6.623814697E-4,9.376901357E-4
5.692106417E0,2.126623876E-4,-2.668228932E-3,5.020491080E-4,2.723366342E-3
5.702155417E0,-1.919730799E-3,1.268189400E-3,-1.135528553E-3,2.565754429E-3
5.712204417E0,4.144708160E-3,-1.192814671E-4,-6.021736190E-4,4.189922060E-3
5.722254417E0,1.795267453E-3,-3.504441120E-4,1.481483690E-3,2.353845838E-3
5.732303417E0,-7.517342456E-4,2.031210810E-3,-7.401088951E-4,2.288816923E-3
5.742352417E0,-2.142436802E-3,-1.100134104E-3,1.698813867E-3,2.947252798E-3
5.752402417E0,1.016210532E-3,-1.496118493E-4,3.468923969E-4,1.084159530E-3
5.762451417E0,2.897467464E-3,2.226194367E-3,-8.097183891E-4,3.742579717E-3
5.772500417E0,1.543730847E-3,-7.038568147E-4,-8.982000872E-5,1.698995873E-3
5.782550417E0,-2.631839365E-3,1.092711464E-3,1.052143401E-3,3.037696911E-3
5.792599417E0,-2.713381313E-3,-1.480919309E-4,-2.510915510E-4,2.728995481E-3
5.802648417E0,-3.596796305E-4,-1.285794191E-3,-3.037823364E-3,3.318283733E-3
5.812698417E0,-1.191775082E-4,1.956503838E-4,-1.659291796E-3,1.675031826E-3
5.822747417E0,-1.471530646E-3,-1.020348631E-3,-1.186314272E-3,2.147988669E-3
5.832796417E0,-1.057482674E-3,1.715584658E-4,2.837868175E-3,3.033347604E-3
5.842846417E0,-2.100376645E-3,1.008590218E-3,1.009374973E-4,2.332171661E-3
5.852895417E0,-1.983507071E-3,1.473818906E-3,-1.466049347E-3,2.873280904E-3
5.862944417E0,-7.480666973E-4,9.481110610E-4,1.386462245E-3,1.838694081E-3
5.872994417E0,-1.736296108E-4,1.096754801E-3,9.169737459E-4,1.440089992E-3
5.883043417E0,-3.055968788E-3,3.473409452E-4,1.787827583E-3,3.557515767E-3
5.893092417E0,-1.836243318E-3,2.974420786E-4,1.004090067E-3,2.113872791E-3
5.903142417E0,-1.887109596E-3,-6.852643564E-4,-1.092083985E-3,2.285479664E-3
5.913191417E0,-1.328432700E-3,-1.207516529E-3,-1.423032256E-3,2.290818720E-3
5.923240417E0,-1.004059799E-3,-1.101256348E-3,-1.724117319E-4,1.500209129E-3
5.933290417E0,-1.417393680E-3,4.237443209E-4,-1.026429003E-3,1.800588957E-3
5.943339417E0,4.912938457E-4,-3.613559529E-4,-3.904661571E-4,7.241626802E-4
5.953388417E0,-8.567684563E-4,1.309918705E-3,-5.918577663E-4,1.673390217E-3
5.963438417E0,-9.569033282E-4,-1.248579938E-3,8.907240699E-4,1.807762487E-3
5.973487417E0,1.528693596E-3,1.289920416E-3,-1.606740407E-4,2.006642703E-3
5.983536417E0,2.628930961E-4,1.038784627E-3,7.285554893E-4,1.295754368E-3
5.993586417E0,9.524101042E-4,3.175775986E-3,-9.535864228E-5,3.316885797E-3
6.003635417E0,-1.152019715E-3,8.569611236E-4,-9.459722787E-4,1.719417152E-3
6.013684417E0,-3.267469001E-4,1.217692625E-3,1.673562801E-4,1.271828208E-3
6.023734417E0,-3.193499288E-5,2.722702920E-4,-5.354519235E-4,6.015477687E-4
6.033783417E0,-2.146475017E-3,4.870682023E-4,-4.498563067E-4,2.246544264E-3
6.043832417E0,-4.902549554E-4,1.853269991E-3,-7.491956349E-4,2.058216140E-3
6.053882417E0,1.759923412E-3,-1.599874347E-3,-4.483778612E-4,2.420324576E-3
6.063931417E0,-8.861934766E-4,5.996306427E-4,-1.607385464E-3,1.930954121E-3
6.073980417E0,9.834911907E-5,9.194957092E-4,-7.245236775E-4,1.174767836E-3
6.084030417E0,-1.940567046E-3,1.688349992E-3,4.075861652E-4,2.604314236E-3
6.094079417E0,-9.200884961E-4,-1.367417630E-3,-5.338679766E-4,1.732457454E-3
6.104128417E0,9.760821704E-4,8.384785615E-4,2.797276829E-4,1.316825834E-3
6.114178417E0,-5.480521359E-4,5.503189750E-4,-3.542209161E-4,8.536302333E-4
6.124227417E0,-2.041020431E-3,-1.243852545E-3,6.250234437E-4,2.470544041E-3
6.134276417E0,-1.954778330E-3,1.553465612E-3,-2.678512130E-3,3.661808427E-3
6.144326417E0,-7.238654071E-4,-5.818572827E-4,-6.888050120E-5,9.312805959E-4
6.154375417E0,1.829278306E-3,-1.789415255E-4,-2.334959572E-3,2.971584660E-3
6.164424417E0,2.299592597E-3,-1.483149827E-4,4.997090437E-4,2.357929723E-3
6.174473750E0,-1.748764422E-3,-1.498084050E-3,-9.913428221E-5,2.304834143E-3
6.184522750E0,-1.812147675E-3,2.184002660E-3,-1.426720060E-3,3.176362219E-3
6.194571750E0,1.856553485E-3,-1.737983432E-3,2.955377568E-6,2.543105579E-3
6.204621750E0,1.261336962E-3,-1.093232073E-3,-1.712919213E-3,2.391698042E-3
6.214670750E0,1.655466622E-3,5.986029282E-5,2.563313115E-3,3.052003787E-3
6.224719750E0,-3.775905352E-4,5.104672164E-4,-1.695880434E-3,1.810845614E-3
6.234769750E0,7.592644542E-4,-2.873372287E-4,-1.431733253E-3,1.645875239E-3
6.244818750E0,-5.507445312E-4,-2.569133649E-3,6.263576797E-4,2.701127762E-3
6.254867750E0,2.263554488E-4,1.259068027E-3,-1.183646382E-4,1.284717585E-3
6.264917750E0,-5.116064567E-4,7.049925625E-5,-7.010643021E-4,8.707482227E-4
6.274966750E0,-1.563913072E-3,1.888043247E-3,4.693579394E-4,2.496162710E-3
6.285015750E0,-8.133129450E-5,-1.563147176E-3,-1.270485227E-3,2.015980304E-3
6.295065750E0,2.196384303E-4,2.705377527E-3,3.103430499E-4,2.731962923E-3
6.305114750E0,-8.770513232E-4,-4.646694288E-5,-6.308180164E-4,1.081346184E-3
6.315163750E0,-1.279694261E-3,-5.981856957E-4,1.035707537E-4,1.416393459E-3
6.325213750E0,4.251158796E-3,9.469804354E-4,6.298113731E-4,4.400657385E-3
6.335262750E0,-6.454680115E-4,-4.839370959E-4,3.418620909E-4,8.761813487E-4
6.345311750E0,1.249104738E-3,2.304126509E-3,-6.245990517E-4,2.694324700E-3
6.355361750E0,2.142579178E-4,-1.519633923E-3,5.135778920E-4,1.618318870E-3
6.365410750E0,2.019082196E-3,-1.342799980E-3,-6.046834169E-4,2.499089181E-3
6.375459750E0,1.116480213E-3,2.291994169E-3,6.561510963E-4,2.632546220E-3
6.385509750E0,-4.252236686E-4,1.023796853E-3,1.946252305E-4,1.125546154E-3
6.395558750E0,-1.843978069E-3,6.391396746E-4,-8.398901555E-4,2.124657647E-3
6.405607750E0,2.161416225E-3,5.994583480E-4,-9.922229219E-4,2.452667270E-3
6.415657750E0,-7.010787958E-4,3.732406069E-3,-1.193813281E-3,3.980898980E-3
6.425706750E0,-1.916545560E-3,-1.348106656E-3,-3.112620674E-3,3.896016671E-3
6.435755750E0,2.250462712E-4,-1.183802728E-3,9.020982543E-5,1.208375991E-3
6.445805750E0,1.869548345E-3,5.400613882E-4,-4.871634592E-4,2.006042261E-3
6.455854750E0,1.257921685E-3,9.462269954E-4,2.054128097E-3,2.587886152E-3
6.465903750E0,-1.486465801E-3,-1.362201292E-3,9.987172671E-4,2.250024248E-3
6.475953750E0,-1.061899122E-3,7.788930088E-5,-6.193443551E-4,1.231780792E-3
6.486002750E0,4.142910184E-4,-3.692554310E-4,-1.371154794E-3,1.479206575E-3
6.496051750E0,-2.240412869E-5,-2.098544035E-3,1.242985018E-3,2.439139349E-3
6.506101750E0,2.024767920E-3,3.263464663E-3,1.643790863E-3,4.177551333E-3
6.516150750E0,-2.965661231E-3,-4.770406522E-4,-1.035992522E-3,3.177419524E-3
6.526199750E0,-1.392265898E-3,-8.927602321E-4,-5.816572229E-4,1.753211421E-3
6.536249750E0,2.516036853E-3,-7.424009964E-4,1.518236240E-3,3.030947371E-3
6.546298750E0,-1.748216571E-3,-5.000536330E-4,-7.363959448E-4,1.961783322E-3
6.556348750E0,1.847532694E-3,-1.351756509E-3,-7.498760242E-4,2.408928552E-3
6.566397750E0,8.318031323E-4,-3.134476487E-3,4.064685781E-4,3.268341476E-3
6.576446750E0,1.792238560E-3,-1.153488643E-3,1.657624030E-3,2.700068986E-3
6.586495750E0,9.725175914E-4,-1.222996973E-3,1.451761695E-3,2.132867572E-3
6.596545750E0,1.687258133E-3,1.568773296E-3,-4.036577302E-4,2.338980381E-3
6.606594750E0,1.554632676E-3,-7.558995858E-4,-3.866135376E-4,1.771365848E-3
6.616643750E0,1.097445842E-3,1.423741225E-3,5.436410429E-4,1.878023439E-3
6.626693750E0,9.187476826E-4,-1.312923152E-3,6.219380302E-4,1.718915769E-3
6.636742750E0,-5.592942471E-4,9.305314161E-4,6.119039608E-4,1.246244450E-3
6.646791750E0,-1.712716767E-4,-8.838805370E-4,2.574227983E-5,9.006894337E-4
6.656841750E0,4.917075858E-4,-1.973463688E-3,1.071175211E-3,2.298641253E-3
6.666890750E0,3.966327640E-4,1.527527813E-3,-2.524827141E-5,1.578384061E-3
6.676940750E0,-7.771566743E-5,1.578587573E-3,-1.747848000E-3,2.356470047E-3
6.686989750E0,8.642444154E-4,1.591104548E-3,1.648343168E-4,1.818159081E-3
6.697038750E0,-5.018573720E-4,2.673128620E-5,-6.954092532E-5,5.073571955E-4
6.707088750E0,-3.742919071E-4,5.923863500E-4,6.388599286E-4,9.482394359E-4
6.717137750E0,-3.238036879E-4,-1.317644957E-3,-1.357849920E-3,1.919581587E-3
6.727186750E0,-2.853274113E-3,-5.780849606E-4,2.624173067E-4,2.923049474E-3
6.737235750E0,-2.738989191E-3,1.579544507E-3,-2.546033589E-3,4.059471601E-3
6.747285750E0,-3.667973215E-5,1.942533534E-3,4.199289251E-4,1.987743000E-3
6.757334750E0,-1.997276908E-3,1.334905624E-3,3.238614881E-4,2.424040911E-3
6.767383750E0,-1.958128298E-3,1.200948842E-3,-6.545839133E-4,2.388519343E-3
6.777433750E0,1.553572481E-3,-1.694774255E-4,2.405741718E-3,2.868780798E-3
6.787482750E0,2.063834108E-3,4.224386066E-5,3.046821803E-5,2.064491241E-3
6.797532750E0,-1.374958549E-3,-3.733495250E-4,3.445219481E-4,1.465809077E-3
6.807581750E0,-4.937184276E-4,-3.573936177E-3,-6.799960975E-4,3.671399240E-3
6.817630750E0,8.125825552E-4,4.835510626E-4,-3.371680505E-4,1.003889602E-3
6.827679750E0,1.832040609E-3,5.687722005E-4,-2.233604901E-3,2.944293712E-3
6.837729750E0,1.567409374E-3,9.001772851E-4,-3.506452776E-4,1.841207050E-3
6.847778750E0,3.293057962E-4,5.787336268E-4,1.064025913E-3,1.255199611E-3
6.857827750E0,-7.983711548E-4,-4.033977166E-4,-6.952251424E-4,1.132900798E-3
6.867877750E0,3.759504762E-5,-7.027368993E-4,-7.444224320E-5,7.076681318E-4
6.877926750E0,-1.151820761E-3,9.105307981E-5,-1.876684139E-3,2.203843253E-3
6.887975750E0,-4.921557847E-4,1.466841903E-3,-1.852449379E-3,2.413588860E-3
6.898025750E0,6.691429880E-4,-1.066457946E-3,-1.742489403E-4,1.271002589E-3
6.908074750E0,1.661170507E-3,-2.144239377E-3,-4.586745636E-4,2.750932990E-3
6.918124750E0,-5.206305068E-4,-1.871073619E-4,-1.502413070E-3,1.601034141E-3
6.928173750E0,-4.415346775E-4,3.082402982E-4,-1.187627437E-3,1.304003022E-3
6.938222750E0,-2.032897901E-3,-1.299765427E-3,-1.615888323E-4,2.418300021E-3
6.948272750E0,1.000708900E-3,-7.037497126E-4,-6.926232018E-4,1.405848093E-3
6.958321750E0,6.287333090E-4,-1.449882984E-4,-1.739760162E-3,1.855557222E-3
6.968370750E0,7.070302381E-4,-2.770810388E-4,-1.120042638E-3,1.353204039E-3
6.978419750E0,1.299692085E-3,-3.714845516E-4,-1.176404068E-3,1.791961724E-3
6.988469750E0,9.028810309E-4,-5.650967360E-4,-1.639261493E-3,1.954918596E-3
6.998518750E0,7.595402421E-4,6.215474568E-4,7.080521900E-4,1.210190284E-3
7.008568750E0,7.787149516E-4,1.592269633E-3,4.425350344E-4,1.826898141E-3
7.018617750E0,-4.055149620E-4,-4.045567475E-4,-1.518172212E-4,5.925850277E-4
7.028666750E0,-2.040429506E-3,3.232853487E-4,-2.817795030E-4,2.085009754E-3
7.038716750E0,4.992437898E-4,-3.270488232E-4,-9.409046615E-4,1.114229275E-3
7.048765750E0,2.070950577E-4,-1.454631332E-3,4.712806549E-5,1.470055009E-3
7.058814750E0,-2.150536980E-3,3.965315409E-4,-1.242343220E-3,2.515047364E-3
7.068864750E0,5.075642257E-4,-5.281181075E-4,8.666140493E-4,1.134702643E-3
7.078913750E0,-1.479076105E-3,2.239109017E-4,-3.036169335E-3,3.384690008E-3
7.088962750E0,-2.086809371E-3,1.493173186E-3,1.441403292E-3,2.943124694E-3
7.099011750E0,1.215764321E-3,1.403415110E-3,-2.251879312E-3,2.918667040E-3
7.109061750E0,-1.214103890E-3,1.380777918E-3,1.488796785E-3,2.365821586E-3
7.119110750E0,-1.274798298E-3,4.577403888E-5,-1.408387790E-3,1.900200550E-3
7.129160750E0,-7.019523182E-4,-6.389245391E-4,-2.246218268E-3,2.438536063E-3
7.139209750E0,5.585654289E-4,2.638644539E-3,6.672944874E-4,2.778438819E-3
7.149258750E0,4.919864004E-4,-8.310656995E-5,-2.726637991E-3,2.771914872E-3
7.159308750E0,5.005355924E-4,-2.785068937E-4,-2.057094593E-3,2.135354802E-3
7.169357750E0,3.748344025E-4,-1.607690472E-3,-1.573730959E-3,2.280745188E-3
7.179407042E0,4.113306641E-4,1.792767551E-3,-1.967009855E-3,2.693016186E-3
7.189457042E0,1.960491529E-3,-1.354290172E-3,-2.956017852E-5,2.382960912E-3
7.199506042E0,4.550571030E-4,1.565722283E-3,-5.127931945E-4,1.709245475E-3
7.209555042E0,-5.598735879E-4,-8.441722021E-4,-1.313605695E-3,1.658808326E-3
7.219605042E0,-7.070334977E-4,1.109078992E-3,-2.127062762E-3,2.500869563E-3
7.229654042E0,1.216035103E-3,-1.427049283E-3,-8.974457160E-5,1.877036259E-3
7.239703042E0,2.304141410E-3,-1.608905382E-3,1.307065133E-3,3.099365004E-3
7.249752042E0,-4.445071099E-4,1.278227661E-3,5.701683694E-4,1.468517788E-3
7.259802042E0,1.657431712E-3,-8.026449941E-4,2.710599219E-4,1.861395269E-3
7.269851042E0,1.468080911E-3,1.862646546E-3,-1.907321857E-4,2.379305042E-3
7.279901042E0,-1.434190199E-4,7.520997897E-4,-3.778663231E-4,8.538185211E-4
7.289950042E0,1.482707099E-3,1.380073372E-3,-7.618941600E-4,2.164140838E-3
7.299999042E0,-5.942396820E-4,7.855053991E-5,-8.594191750E-4,1.047803562E-3
7.310049042E0,8.579820278E-4,-6.623407826E-4,-2.945627202E-4,1.123207758E-3
7.320098042E0,1.924466109E-3,-4.377001897E-4,-1.771541196E-3,2.652076445E-3
7.330147042E0,1.757752383E-3,4.800250754E-4,-1.592843095E-3,2.420179051E-3
7.340197042E0,4.173662164E-4,1.983544789E-4,1.669907942E-4,4.913501636E-4
7.350246042E0,-6.287234137E-4,5.163359456E-4,1.944213873E-4,8.364781022E-4
7.360295042E0,-4.150596214E-5,-8.037500083E-5,7.196618244E-4,7.253247736E-4
7.370344042E0,-2.476167865E-3,8.607860655E-4,-4.657111713E-4,2.662563960E-3
7.380394042E0,-2.282644156E-3,-1.173450612E-3,-1.461724518E-3,2.953656928E-3
7.390443042E0,-1.302774181E-4,-3.095483407E-5,9.742690017E-4,9.834279308E-4
7.400493042E0,-2.507701516E-3,-1.217213925E-3,2.091873903E-4,2.795341839E-3
7.410542042E0,9.831700008E-4,1.378026791E-4,-1.263540704E-3,1.606906326E-3
7.420591042E0,-6.136110169E-4,8.166795596E-4,3.880761797E-4,1.092742927E-3
7.430641042E0,2.689605171E-4,1.846258063E-3,4.133256152E-5,1.866203894E-3
7.440690042E0,2.774139284E-4,-1.165140420E-4,-5.632405519E-4,6.385717884E-4
7.450739042E0,3.397319233E-4,-1.010270789E-3,-3.456603154E-4,1.120511446E-3
7.460789042E0,2.956548240E-3,2.611998469E-3,-1.598334056E-3,4.256569658E-3
7.470838042E0,-8.049004246E-4,-9.403983131E-5,-6.169010885E-5,8.127200335E-4
7.480887042E0,-2.016989980E-3,-1.836049370E-3,1.339804614E-3,3.038815933E-3
7.490936042E0,1.699984074E-3,9.839716367E-4,-1.345727127E-3,2.380992972E-3
7.500986042E0,8.698157035E-5,-1.932623331E-3,-5.572799710E-4,2.013246060E-3
7.511035042E0,-1.773769152E-3,-1.802635379E-4,-1.881658682E-4,1.792807391E-3
7.521085042E0,1.864785561E-3,-4.619359970E-6,2.280098852E-4,1.878679067E-3
7.531134042E0,8.011189639E-4,-1.638764516E-4,-9.810652118E-4,1.277159362E-3
7.541183042E0,3.078967333E-3,3.409953788E-4,4.636464291E-4,3.132297192E-3
7.551232042E0,9.484384209E-4,6.608408876E-4,-7.089433493E-4,1.356040851E-3
7.561282042E0,1.069779508E-3,-1.138579100E-4,6.843523006E-4,1.275041133E-3
7.571331042E0,-1.301232842E-3,1.392425969E-3,-1.844319049E-3,2.652087808E-3
7.581381042E0,-1.083628042E-3,2.487740945E-3,5.482219858E-4,2.768330199E-3
7.591430042E0,-9.589920519E-4,-2.917996608E-4,-3.625791287E-4,1.065962674E-3
7.601479042E0,-3.305671271E-6,-2.428633627E-3,-1.314552152E-3,2.761579182E-3
7.611529042E0,6.270645536E-4,-2.880305750E-3,3.704298288E-4,2.970957662E-3
7.621578042E0,-9.674131870E-4,1.069130376E-4,1.259815181E-3,1.591996533E-3
7.631627042E0,-4.862266360E-5,-2.803103998E-4,-1.695228391E-3,1.718934956E-3
7.641676042E0,6.044747424E-4,-1.418330241E-3,2.309664618E-3,2.776976960E-3
7.651726042E0,-8.416217752E-4,1.670670696E-3,-4.856428131E-5,1.871316722E-3
7.661775042E0,1.851265086E-3,-1.087526791E-3,1.339178067E-3,2.530473243E-3
7.671824042E0,-1.878758194E-3,3.990498371E-4,3.615317983E-4,1.954399745E-3
7.681874042E0,5.765022361E-4,7.577533834E-4,1.414894010E-3,1.705423724E-3
7.691923042E0,-5.779781495E-4,2.663245425E-3,-9.896741249E-4,2.899377486E-3
7.701972042E0,6.753950147E-4,3.593191504E-4,-2.424310194E-3,2.542154322E-3
7.712022042E0,-1.663393108E-3,7.300311700E-4,-2.426174469E-3,3.030865338E-3
7.722071042E0,-6.907652132E-4,1.482842490E-3,1.541307662E-3,2.247578194E-3
7.732121042E0,-2.208234509E-3,1.059133559E-3,-1.579118194E-3,2.914048355E-3
7.742170042E0,-3.669661237E-3,-6.698532961E-4,6.726171705E-4,3.790452597E-3
7.752219042E0,-2.416404895E-4,-6.948867813E-4,6.814055960E-4,1.002781806E-3
7.762268042E0,-9.986882797E-4,-1.006363891E-4,1.308336505E-3,1.649014970E-3
7.772318042E0,5.709788529E-4,-2.324627712E-4,6.310945610E-4,8.822336059E-4
7.782367042E0,-2.771180356E-3,-1.297774259E-3,-2.304507419E-3,3.830719650E-3
7.792416042E0,-2.050529001E-3,-1.480200794E-3,7.267024484E-4,2.631303864E-3
7.802466042E0,-1.143560512E-4,2.637338359E-3,-1.520094927E-3,3.046197550E-3
7.812515042E0,-1.122255344E-4,3.115109634E-3,-2.070570365E-3,3.742160370E-3
7.822564042E0,-1.842747908E-3,1.640859991E-4,3.386901808E-4,1.880785768E-3
7.832614042E0,-5.263473722E-4,-1.726225950E-3,9.086066275E-4,2.020510725E-3
7.842663042E0,-1.227320405E-3,-2.635042183E-4,-4.722228914E-4,1.341172736E-3
7.852713042E0,4.848258104E-4,-4.885345697E-5,-5.467914161E-4,7.324094343E-4
7.862762042E0,-1.300847973E-3,7.978640497E-5,-3.214374301E-4,1.342346207E-3
7.872811042E0,-1.629748498E-3,-3.902614117E-4,4.050729331E-4,1.724084748E-3
7.882861042E0,7.095920155E-4,-1.224759500E-3,1.540172612E-3,2.091814604E-3
7.892910042E0,4.312917008E-4,1.060222276E-4,3.830290516E-4,5.864848662E-4
7.902959042E0,2.340764040E-4,8.296188898E-4,8.587493212E-4,1.216761958E-3
7.913008042E0,4.419300240E-5,-2.732359339E-3,-9.724402335E-4,2.900582801E-3
7.923058042E0,1.592612010E-3,8.342359215E-4,5.247640656E-4,1.872896130E-3
7.933107042E0,2.670925809E-3,-6.747110747E-4,-6.773868226E-4,2.836887840E-3
7.943157042E0,-1.722266315E-3,4.001650959E-4,2.243215451E-3,2.856282361E-3
7.953206042E0,-2.133724745E-3,-2.536410466E-4,5.984471063E-4,2.230527742E-3
7.963255042E0,-2.535641426E-3,1.543638296E-3,2.968962770E-3,4.198456450E-3
7.973304042E0,3.324379213E-5,-6.295009516E-4,2.403929830E-5,6.308363383E-4
7.983354042E0,8.020223468E-4,3.530280665E-4,5.777081242E-4,1.049578647E-3
7.993403042E0,2.715206647E-4,6.598238833E-4,-1.203147694E-3,1.398804991E-3
8.003452042E0,-7.725485484E-4,-2.367227338E-3,2.641936066E-3,3.630485189E-3
8.013502042E0,1.574715134E-5,7.244362496E-4,-1.411395031E-3,1.586534521E-3
8.023551042E0,-1.366838114E-3,1.079016365E-4,-3.936340101E-3,4.168292526E-3
8.033600042E0,-7.130320300E-4,-3.091497347E-4,-1.410690602E-4,7.898662634E-4
8.043650042E0,4.685914028E-4,1.825299114E-5,1.275165239E-3,1.358660172E-3
8.053699042E0,6.991619011E-5,2.083800733E-3,2.975188545E-4,2.106093834E-3
8.063748042E0,-5.814681645E-4,-3.830320202E-4,7.617629599E-4,1.032037578E-3
8.073798042E0,-1.191433985E-4,-1.153750811E-3,2.601208165E-3,2.848090589E-3
8.083847042E0,1.129276585E-3,5.018920638E-4,6.335875951E-4,1.388738452E-3
8.093896042E0,1.295990543E-3,-1.156949438E-4,-7.515224861E-4,1.502585391E-3
8.103946042E0,9.036570555E-4,1.204617321E-3,-8.668195806E-4,1.737548604E-3
8.113995042E0,-8.969061309E-4,2.629408613E-3,-1.292126370E-3,3.063955094E-3
8.124045042E0,1.061609015E-3,1.586849336E-3,-5.063218996E-4,1.975212996E-3
8.134094042E0,-1.249482273E-3,-8.707158267E-4,-9.092581458E-4,1.773725564E-3
8.144143042E0,8.330814308E-4,6.874571554E-4,1.061500050E-3,1.514399012E-3
8.154192042E0,2.303146292E-3,-1.148526091E-3,1.659645932E-3,3.062355244E-3
8.164242042E0,9.339739336E-5,6.395899691E-4,6.611715071E-5,6.497460113E-4
8.174291500E0,1.506204368E-3,-3.516385332E-4,2.696871525E-5,1.546941682E-3
8.184340500E0,-4.154407070E-4,-1.407888718E-3,-2.021559747E-3,2.498288501E-3
8.194390500E0,8.949465700E-5,-1.773008145E-3,-1.297179959E-3,2.198691207E-3
8.204439500E0,-1.297376351E-3,6.672423333E-4,-4.104190157E-4,1.515533403E-3
8.214488500E0,-2.110729693E-4,-3.229212016E-4,8.327445248E-4,9.177654081E-4
8.224538500E0,1.087480108E-3,-2.601798624E-4,-1.009532600E-3,1.506473570E-3
8.234587500E0,3.313465277E-5,1.500436105E-3,-6.542669144E-4,1.637214587E-3
8.244636500E0,3.327204031E-4,-4.839217290E-4,2.656391356E-3,2.720532695E-3
8.254686500E0,6.099554594E-4,2.351319417E-4,-9.487296920E-4,1.152137457E-3
8.264735500E0,-2.310452051E-3,1.517749391E-3,6.188282277E-4,2.832790192E-3
8.274784500E0,1.227824017E-3,2.317088656E-4,-8.105050074E-5,1.252122198E-3
8.284834500E0,2.954669995E-3,3.425474279E-4,2.209434751E-5,2.974542264E-3
8.294883500E0,2.147465944E-3,-7.802410983E-4,2.508598845E-4,2.298546679E-3
8.304932500E0,-1.550661400E-4,1.702184323E-3,-2.061727922E-3,2.678096153E-3
8.314982500E0,-1.033376670E-3,1.219087280E-3,1.383337076E-3,2.113684604E-3
8.325031500E0,-1.701927977E-5,-9.889295325E-5,2.212188672E-3,2.214463410E-3
8.335080500E0,-6.537810550E-4,-1.472019125E-3,-5.229719682E-5,1.611522562E-3
8.345130500E0,9.929121006E-6,-1.607504673E-4,-1.143373549E-3,1.154661151E-3
8.355179500E0,1.425665570E-3,-1.718166750E-3,8.582583396E-4,2.391908585E-3
8.365228500E0,1.029336709E-4,-5.246163346E-4,-1.590338652E-3,1.677794584E-3
8.375278500E0,7.764471229E-4,1.180339139E-3,3.263383987E-4,1.450023230E-3
8.385327500E0,-6.970915711E-4,-8.767861873E-4,-2.573235543E-4,1.149306786E-3
8.395376500E0,-1.161014312E-3,5.088564940E-4,-1.404107898E-4,1.275384003E-3
8.405426500E0,-1.373224659E-4,-3.958540037E-5,1.106817857E-3,1.116006377E-3
8.415475500E0,-5.767440307E-4,-2.768733539E-4,3.568717511E-4,7.325639752E-4
8.425524500E0,-3.147565993E-3,-1.103472430E-3,-1.247193781E-3,3.560943050E-3
8.435574500E0,-1.533740433E-4,5.634003319E-4,-5.595656112E-4,8.087380320E-4
8.445623500E0,1.107620774E-3,7.723891176E-4,-1.337246504E-3,1.900430725E-3
8.455672500E0,-2.764239907E-4,-1.244433224E-5,-3.406917094E-4,4.389030929E-4
8.465722500E0,-2.002183581E-3,-2.790470608E-4,4.903748631E-4,2.080161979E-3
8.475771500E0,-1.079132082E-3,8.574221283E-6,3.359115217E-4,1.130237195E-3
8.485820500E0,-1.136297360E-4,6.390106864E-4,-2.123721875E-3,2.220684799E-3
8.495870500E0,-7.208305178E-4,-6.217299961E-4,1.374872751E-3,1.672249953E-3
8.505919500E0,5.882400437E-4,5.780765787E-4,-1.388867386E-4,8.363542348E-4
8.515968500E0,-2.189640654E-4,-3.557546297E-3,-1.003615092E-3,3.702880524E-3
8.526018500E0,1.270617649E-4,-1.304475125E-3,2.846301999E-3,3.133565878E-3
8.536067500E0,-2.061790321E-3,1.623137854E-3,-1.489590504E-3,3.017355745E-3
8.546116500E0,1.040092320E-4,1.096738968E-3,1.149518532E-3,1.592183136E-3
8.556166500E0,2.099249512E-3,-9.584226646E-4,-7.100828225E-5,2.308779914E-3
8.566215500E0,2.013807418E-3,4.104534164E-4,-1.075600390E-3,2.319656984E-3
8.576264500E0,-8.176654810E-4,8.474895731E-5,1.038150513E-3,1.324203803E-3
8.586314500E0,9.076244896E-4,1.316952985E-3,-1.234547468E-3,2.020459064E-3
8.596363500E0,-2.244852367E-4,5.784584209E-4,-5.983182928E-4,8.619701536E-4
8.606412500E0,5.553796655E-4,-1.688209362E-3,-1.043262193E-3,2.060799220E-3
8.616462500E0,7.106419653E-4,-3.342581913E-4,-2.299208893E-3,2.429630028E-3
8.626511500E0,-6.585316733E-4,-1.560593955E-3,7.468013791E-4,1.851169835E-3
8.636560500E0,4.011400742E-4,1.065016259E-3,1.209925045E-3,1.661051355E-3
8.646610500E0,1.200330211E-3,1.668143086E-4,1.068266574E-3,1.615491598E-3
8.656659500E0,-1.801052131E-3,-2.944450825E-4,8.869054145E-4,2.029060842E-3
8.666708500E0,2.191940555E-3,-2.156001981E-3,-2.320004860E-4,3.083305396E-3
8.676758500E0,-1.182284439E-3,6.741397083E-4,-2.144235768E-4,1.377765695E-3
8.686807500E0,-7.948252605E-4,8.177943528E-4,-1.244968269E-3,1.688336693E-3
8.696856500E0,-7.759168511E-4,1.277722418E-3,4.850212135E-4,1.571581088E-3
8.706906500E0,-6.799798575E-4,-4.683714360E-4,2.390920185E-3,2.529474992E-3
8.716955500E0,-8.988916525E-4,-2.397032920E-3,-3.948074300E-5,2.560338211E-3
8.727004500E0,2.614261757E-4,-1.104297116E-3,-7.628282765E-5,1.137380691E-3
8.737054500E0,-1.542932587E-4,1.636338420E-4,-9.492670069E-4,9.755461519E-4
8.747103500E0,-1.340114395E-3,2.657333389E-3,1.491496805E-4,2.979861232E-3
8.757152500E0,-2.479680814E-3,-1.914501190E-4,3.225214896E-4,2.507885603E-3
8.767202500E0,-3.774453187E-3,-1.309073064E-3,8.285480435E-4,4.080031987E-3
8.777251500E0,2.101279097E-3,-6.853607483E-4,-2.183405450E-4,2.220983069E-3
8.787300500E0,-1.702622743E-3,1.451477874E-3,4.099339130E-4,2.274589642E-3
8.797350500E0,-1.718601678E-3,-1.548572909E-3,-1.127775293E-3,2.573625243E-3
8.807399500E0,-6.396179087E-4,-9.818221442E-4,-8.370148134E-4,1.440027635E-3
8.817448500E0,4.514791653E-4,-1.197804231E-3,1.116946456E-3,1.698863679E-3
8.827498500E0,1.587584731E-3,-8.109901100E-4,4.355248529E-4,1.835159975E-3
8.837547500E0,4.506812838E-4,6.931629032E-4,1.981756184E-3,2.147311343E-3
8.847596500E0,-2.307241084E-3,6.273696199E-4,-1.623846474E-4,2.396523072E-3
8.857646500E0,-2.485406585E-3,-9.500207379E-4,-2.769005951E-4,2.675155927E-3
8.867695500E0,3.677595523E-4,-1.900786534E-3,1.199697377E-3,2.277610663E-3
8.877744500E0,-2.285547787E-3,1.406326890E-3,2.084399341E-3,3.397970662E-3
8.887794500E0,9.633741574E-4,2.279771026E-3,-1.315194182E-3,2.802709660E-3
8.897843500E0,-2.286747564E-3,8.853394538E-4,-2.808162477E-3,3.728111702E-3
8.907892500E0,9.758429369E-4,-1.346544363E-3,-5.808717106E-5,1.663978749E-3
8.917942500E0,6.520025781E-4,-1.339620445E-3,6.729505840E-4,1.634794417E-3
8.927991500E0,1.241986640E-3,-8.564447053E-4,-1.069166814E-3,1.849093297E-3
8.938040500E0,1.019346411E-3,-3.472482786E-4,2.810558653E-4,1.112942439E-3
8.948090500E0,-1.799538033E-3,9.328313172E-4,1.613726839E-3,2.590873542E-3
8.958139500E0,7.932196604E-5,1.284102444E-3,9.998609312E-5,1.290429494E-3
8.968188500E0,1.728977368E-4,4.891441204E-4,-1.892916160E-3,1.962724429E-3
8.978238500E0,1.113526290E-3,2.275326289E-3,1.787568326E-4,2.539489029E-3
8.988287500E0,1.887165708E-3,-1.286456827E-3,1.502621803E-3,2.733905240E-3
8.998336500E0,6.759600365E-4,-8.262628689E-4,-1.222324558E-3,1.622870797E-3
9.008386500E0,-3.452581586E-5,-1.671670005E-3,3.565016668E-3,3.937640979E-3
9.018435500E0,4.214073415E-4,1.147552393E-3,-2.076174133E-4,1.239986142E-3
9.028484500E0,-5.457072984E-4,-1.315516885E-3,1.914662076E-3,2.386275759E-3
9.038534500E0,-3.244288266E-3,-7.826182991E-4,-1.527207321E-3,3.670185275E-3
9.048583500E0,-1.112155151E-3,-1.372308005E-3,1.168366056E-3,2.117828506E-3
9.058632500E0,-1.061022514E-3,1.537728589E-3,-4.103558022E-4,1.912791121E-3
9.068682500E0,5.235665594E-4,-2.256091684E-4,5.914081703E-4,8.214530193E-4
9.078731500E0,-2.096017124E-4,7.251393981E-4,-8.967663161E-4,1.172156069E-3
9.088780500E0,-1.123788650E-3,-2.704560757E-6,-2.354063326E-5,1.124038436E-3
9.098830500E0,-6.348323077E-4,2.478989772E-4,-1.447799150E-3,1.600183846E-3
9.108879500E0,-9.055578848E-4,7.082335651E-5,4.191622138E-4,1.000373926E-3
9.118928500E0,2.169061452E-3,5.315504968E-4,-1.728584757E-4,2.239922670E-3
9.128978500E0,1.006526523E-3,9.209667332E-4,-9.066800121E-4,1.638091576E-3
9.139027500E0,6.014597020E-4,6.104419008E-4,-3.138603643E-4,9.126343274E-4
9.149076500E0,-1.103470684E-3,2.881437540E-4,-2.835914493E-4,1.175201465E-3
9.159126500E0,-1.060593757E-3,5.621830933E-4,9.366689483E-4,1.522582565E-3
9.169175500E0,9.230165742E-4,-4.925038666E-4,-6.753185880E-4,1.245220804E-3
9.179223750E0,1.513173105E-3,-3.151083365E-5,-1.211147755E-4,1.518339411E-3
9.189273750E0,-6.413734518E-4,6.828741170E-4,-5.419488880E-4,1.082305669E-3
9.199322750E0,3.274845367E-4,6.818086840E-4,-9.305041167E-4,1.199144326E-3
9.209371750E0,1.230711350E-3,4.020477645E-4,1.232739305E-3,1.787718945E-3
9.219421750E0,2.059487160E-3,-1.230469905E-3,6.742743426E-4,2.492025168E-3
9.229470750E0,6.971409312E-5,-6.576073356E-4,6.632771110E-4,9.366130410E-4
9.239519750E0,2.364560030E-3,5.285646766E-4,-1.388422213E-3,2.792533079E-3
9.249569750E0,6.050679949E-4,-2.178750001E-4,1.492315903E-3,1.624987246E-3
9.259618750E0,-1.222412684E-4,-6.871237420E-4,-9.263670072E-4,1.159843867E-3
9.269667750E0,1.577581046E-3,2.263455652E-3,1.443804358E-4,2.762759337E-3
9.279717750E0,3.200364590E-4,1.482883003E-3,8.845399134E-5,1.519601738E-3
9.289766750E0,-6.860204157E-4,-7.599312812E-4,2.492518979E-4,1.053682149E-3
9.299815750E0,1.925475430E-3,-2.414553193E-3,-3.490742529E-5,3.088485273E-3
9.309865750E0,8.325728122E-4,2.542677801E-3,1.402989728E-3,3.021054132E-3
9.319914750E0,7.843695930E-4,2.318527550E-4,4.168212181E-4,9.180039686E-4
9.329963750E0,6.481892196E-4,-9.628986008E-4,-1.181185246E-3,1.656056027E-3
9.340013750E0,1.873509609E-3,2.344585955E-4,-1.259215875E-3,2.269500762E-3
9.350062750E0,6.388727343E-4,-4.735025577E-4,9.957577568E-4,1.274321997E-3
9.360111750E0,-7.459710469E-4,8.322452195E-4,-1.003743499E-3,1.502200359E-3
9.370161750E0,7.031314890E-4,-2.054839395E-3,6.283982657E-5,2.172718959E-3
9.380210750E0,1.454655430E-4,-9.600138292E-4,-3.720543464E-4,1.039813066E-3
9.390259750E0,-7.218437386E-4,-1.163417939E-3,-1.242890488E-3,1.849155605E-3
9.400309750E0,-1.220998238E-4,-2.288337331E-3,-6.482065655E-4,2.381505377E-3
9.410358750E0,2.067946130E-3,1.899696887E-3,8.959000697E-4,2.947522077E-3
9.420407750E0,2.809650905E-4,3.523998894E-4,1.474338584E-3,1.541687816E-3
9.430457750E0,-2.755000605E-4,3.328379244E-4,-9.775159415E-4,1.068746361E-3
9.440506750E0,1.554890536E-3,3.924928606E-4,6.976124132E-4,1.748827694E-3
9.450555750E0,-7.883012295E-4,8.751866408E-4,-6.409853813E-4,1.340982007E-3
9.460605750E0,2.316894534E-4,-7.365583442E-4,9.644392412E-5,7.781385659E-4
9.470654750E0,1.812517876E-3,-2.659275196E-4,-6.216460606E-4,1.934523797E-3
9.480703750E0,3.592309076E-5,-1.914690249E-3,7.360334275E-4,2.051602891E-3
9.490753750E0,2.608213108E-4,-1.107826829E-4,1.651393133E-3,1.675529719E-3
9.500802750E0,1.121022273E-3,-7.573980838E-4,9.264500113E-5,1.356070017E-3
9.510851750E0,-1.706623938E-3,-2.353405580E-3,-9.962208569E-4,3.073034182E-3
9.520901750E0,1.120587811E-3,2.423771657E-4,-1.368187950E-4,1.154635490E-3
9.530950750E0,-8.251322433E-4,1.531507354E-3,-4.427308741E-4,1.795095714E-3
9.540999750E0,9.709035512E-4,1.377576031E-3,-1.966548152E-4,1.696774158E-3
9.551049750E0,8.915921208E-4,1.520650927E-3,6.984525244E-4,1.896088521E-3
9.561098750E0,7.781414315E-4,3.334139474E-4,1.805528766E-3,1.994142189E-3
9.571147750E0,1.203528373E-3,1.060790382E-4,3.521980252E-4,1.258481925E-3
9.581197750E0,-2.688947832E-3,3.372712992E-3,-1.926847035E-4,4.317726342E-3
9.591246750E0,2.618288621E-3,5.070189945E-4,5.807393463E-4,2.729425169E-3
9.601295750E0,-4.978763172E-4,1.216485165E-3,-7.385906647E-4,1.507724495E-3
9.611345750E0,1.100163790E-3,8.421298116E-4,3.744709073E-3,3.992792134E-3
9.621394750E0,-1.524381572E-3,2.558537759E-3,1.834423747E-3,3.497851501E-3
9.631443750E0,1.077720895E-3,2.285358496E-4,-6.119356258E-4,1.260228619E-3
9.641493750E0,-8.077971870E-4,5.739475600E-4,-5.024797283E-4,1.111052642E-3
9.651542750E0,-2.693834715E-3,8.103200234E-4,-1.192370779E-3,3.055341566E-3
9.661591750E0,-1.260149293E-4,-2.101313788E-3,1.379976515E-3,2.517088513E-3
9.671641750E0,9.447369957E-4,-8.268477395E-4,1.749745570E-5,1.255592026E-3
9.681690750E0,-2.432151232E-3,4.306966439E-4,4.092485178E-4,2.503666025E-3
9.691739750E0,1.155874692E-3,1.236615237E-3,-7.602972910E-4,1.855617288E-3
9.701789750E0,-7.038105978E-4,-3.466340713E-4,-1.113432460E-3,1.362070622E-3
9.711838750E0,-3.300550743E-4,-2.122463658E-3,1.427532407E-4,2.152711504E-3
9.721887750E0,-1.937012421E-4,-4.573073238E-5,-2.141103032E-4,2.923263468E-4
9.731937750E0,1.542084385E-3,2.250438090E-3,-1.438622130E-3,3.084174036E-3
9.741986750E0,-3.492927062E-4,-1.028978266E-3,-1.254864037E-3,1.659965487E-3
9.752035750E0,6.336750230E-4,5.885343999E-4,-1.049482962E-3,1.359901196E-3
9.762085750E0,-2.053720644E-3,9.949328378E-4,1.529255882E-3,2.747049942E-3
9.772134750E0,1.371923252E-3,9.402325377E-4,-1.306795981E-3,2.115165802E-3
9.782183750E0,-1.961821923E-3,-9.295726195E-4,-4.255559179E-4,2.212227012E-3
9.792233750E0,1.737867715E-3,-1.353956759E-3,9.259970975E-4,2.389739259E-3
9.802282750E0,-4.911329597E-5,-5.060061812E-4,1.434927341E-3,1.522324159E-3
9.812331750E0,5.856928765E-4,-3.508543596E-4,1.445584465E-3,1.598702403E-3
9.822381750E0,1.137807267E-4,1.197241247E-3,-9.067856590E-4,1.506184878E-3
9.832430750E0,-6.691857707E-4,-3.911927342E-5,1.307170955E-3,1.469025465E-3
9.842479750E0,-4.494085442E-5,-4.660240375E-4,-2.787169069E-5,4.690148345E-4
9.852529750E0,4.191066138E-3,-7.752692327E-4,-2.456881572E-3,4.919587871E-3
9.862578750E0,1.048802747E-3,-2.958392724E-5,2.706721425E-3,2.902964568E-3
9.872627750E0,1.114673563E-3,-1.877303701E-3,8.076517261E-4,2.327889097E-3
9.882677750E0,7.191941258E-4,-1.027222723E-3,1.110453159E-3,1.674972516E-3
9.892726750E0,-1.514858450E-3,-3.238515928E-4,-2.491225954E-3,2.933578486E-3
9.902775750E0,-1.023178338E-4,9.592589922E-4,2.150783548E-4,9.883852751E-4
9.912825750E0,3.396575048E-4,1.302827150E-5,1.331354142E-4,3.650506745E-4
9.922874750E0,2.032362623E-3,-9.110150859E-5,1.080688089E-3,2.303624115E-3
9.932923750E0,-9.848257760E-4,5.916832015E-4,1.216359902E-3,1.673171310E-3
9.942973750E0,1.430128701E-3,-1.338309608E-3,-2.044365392E-4,1.969298100E-3
9.953022750E0,3.997206222E-4,-9.667505510E-4,-1.486066030E-4,1.056630080E-3
9.963071750E0,-3.064621706E-5,-5.283942446E-4,2.697779797E-3,2.749209978E-3
9.973121750E0,1.212227158E-3,-1.905155368E-4,3.148592077E-4,1.266857203E-3
9.983170750E0,-1.153192483E-3,-2.826605923E-4,-6.372209173E-4,1.347516386E-3
9.993219750E0,5.215800484E-4,1.216352452E-3,-9.876259137E-4,1.651352167E-3
1.000326975E1,-1.128780888E-3,-1.472907607E-3,3.996146843E-4,1.898234708E-3
1.001331875E1,-8.083677385E-4,9.660664946E-4,-1.134561608E-3,1.695279598E-3
1.002336775E1,2.173573710E-3,1.691245008E-3,1.455895370E-3,3.115182768E-3
1.003341775E1,-2.434824593E-3,1.131729688E-3,-1.244677347E-3,2.959460185E-3
1.004346675E1,-2.653736388E-3,-1.876004972E-4,5.766585236E-4,2.722139934E-3
1.005351575E1,2.132200636E-3,1.542128157E-3,-8.214336121E-4,2.756663197E-3
1.006356575E1,1.572936773E-3,8.923169225E-4,1.700047404E-3,2.482039637E-3
1.007361475E1,9.022502927E-4,2.307841089E-3,-9.297475917E-4,2.646623635E-3
1.008366375E1,-1.387793454E-4,9.163399227E-4,-4.359974992E-4,1.024222818E-3
1.009371375E1,2.182085591E-4,-1.273633912E-3,-1.022666693E-3,1.647909428E-3
1.010376275E1,-7.047812687E-5,5.964380689E-4,-1.321739750E-3,1.451792514E-3
1.011381175E1,-4.580741748E-3,-8.917902596E-4,5.648328224E-4,4.700800033E-3
1.012386175E1,8.545040619E-4,1.110374462E-3,4.399304744E-4,1.468552845E-3
1.013391075E1,-1.201672363E-3,1.522167586E-3,1.417147345E-3,2.401940304E-3
1.014395975E1,-1.007216051E-4,3.088316880E-4,-4.859474720E-4,5.845227103E-4
1.015400975E1,-1.272377791E-3,8.664717898E-4,1.089381985E-4,1.543238846E-3
1.016405875E1,-9.735712665E-4,-2.436114009E-3,7.986968849E-4,2.742336448E-3
1.017410775E1,-1.568536274E-3,2.468226478E-3,1.148716779E-3,3.141973620E-3
1.018415812E1,-1.208743313E-3,-8.167829365E-4,-2.919940744E-5,1.459125549E-3
1.019420713E1,5.012275651E-4,-3.755406709E-3,-6.205128739E-4,3.839185441E-3
1.020425612E1,1.024538651E-3,-2.677310258E-4,-5.667170044E-4,1.201052669E-3
1.021430612E1,-1.632346306E-3,1.160635147E-3,5.227399524E-4,2.069996489E-3
1.022435512E1,-8.983791922E-4,-1.403191127E-4,5.515021039E-4,1.063451549E-3
1.023440412E1,3.748292220E-4,-6.794338115E-4,-8.820008952E-5,7.809651116E-4
1.024445413E1,4.728335771E-4,7.610698231E-4,-7.396092406E-4,1.161817841E-3
1.025450312E1,1.042104210E-3,6.984593347E-4,2.063179389E-3,2.414650247E-3
1.026455213E1,3.076759400E-3,-1.512763090E-3,1.021350850E-3,3.577437369E-3
1.027460212E1,-1.567492960E-3,-1.050447579E-3,-1.385433134E-4,1.892001202E-3
1.028465112E1,-1.588798361E-3,-1.729358919E-4,1.387714408E-3,2.116586481E-3
1.029470012E1,-8.308740216E-4,-2.375492826E-3,1.311907079E-3,2.838030654E-3
1.030475012E1,4.461117205E-4,1.311920118E-3,-1.490803552E-3,2.035348936E-3
1.031479913E1,2.193018096E-3,-1.160630956E-3,-2.197738038E-3,3.314580678E-3
1.032484812E1,1.452925731E-3,1.197864767E-3,-5.050328909E-4,1.949597754E-3
1.033489813E1,-2.967040055E-3,5.403356627E-4,2.915974474E-4,3.029904022E-3
1.034494712E1,1.197186066E-5,4.841341171E-3,-1.357964473E-3,5.028199993E-3
1.035499612E1,-1.343331067E-3,-9.961961769E-4,-1.127757481E-3,2.017122236E-3
1.036504612E1,1.823433675E-3,-5.557094701E-4,2.111711539E-3,2.844828467E-3
1.037509512E1,-1.698228414E-3,-2.333028242E-4,-5.716707092E-4,1.806991244E-3
1.038514413E1,1.808622037E-3,-1.192839816E-3,1.630230807E-3,2.711389493E-3
1.039519412E1,5.233558477E-4,3.785956651E-4,3.130788682E-4,7.178122308E-4
1.040524313E1,-1.869228203E-3,-4.057050683E-4,2.325097099E-3,3.010761896E-3
1.041529212E1,4.331967328E-3,2.442612313E-4,-4.421093618E-4,4.361314614E-3
1.042534212E1,1.944443444E-3,-1.623147167E-3,6.577761378E-4,2.616894434E-3
1.043539113E1,-1.655550906E-3,1.454443671E-3,-7.028722903E-4,2.313068233E-3
1.044544012E1,-4.728410859E-4,2.599603031E-3,-2.216080436E-3,3.448554351E-3
1.045549013E1,1.692312886E-3,9.816535749E-4,-4.631829797E-4,2.010498724E-3
1.046553912E1,1.653430751E-3,5.407491699E-5,-1.539100078E-3,2.259554468E-3
1.047558813E1,-9.400291019E-4,1.211068127E-3,1.344503835E-3,2.039125127E-3
1.048563712E1,2.168481005E-4,-3.239777870E-4,-1.151410746E-3,1.215619765E-3
1.049568712E1,-4.920872743E-4,-3.668628633E-4,1.394573483E-3,1.523671042E-3
1.050573613E1,1.208340982E-3,6.227679551E-4,-3.020148724E-3,3.311982212E-3
1.051578612E1,-2.908101305E-4,1.072345302E-3,1.424219459E-3,1.806348816E-3
1.052583513E1,-8.431496681E-4,-1.005111262E-4,4.098212230E-4,9.428453129E-4
1.053588412E1,2.158166608E-4,5.568000488E-4,1.111958409E-3,1.262162679E-3
1.054593413E1,-2.941786661E-4,-3.611915745E-4,1.457370352E-3,1.530009406E-3
1.055598312E1,6.005465984E-4,-6.821118295E-4,3.402139992E-3,3.521432846E-3
1.056603212E1,-1.303879893E-3,1.141621266E-3,-1.918855589E-3,2.585615722E-3
1.057608113E1,8.741037454E-4,3.316043876E-4,-1.438336214E-3,1.715467835E-3
1.058613112E1,-9.219321073E-4,1.883259974E-4,-1.833815593E-3,2.061141704E-3
1.059618013E1,1.982088666E-3,-3.208438866E-4,2.500427887E-3,3.206829571E-3
1.060622912E1,-8.765482926E-4,-1.127249096E-3,2.998578129E-4,1.459089490E-3
1.061627912E1,2.536832821E-3,1.428735908E-3,7.465073722E-4,3.005674685E-3
1.062632812E1,1.074224710E-3,6.023570895E-4,1.657308545E-3,2.064815828E-3
1.063637712E1,-1.357190427E-3,2.432887442E-3,-1.318359282E-3,3.082041265E-3
1.064642713E1,-7.425328949E-4,5.428418517E-4,-5.010351306E-4,1.047410415E-3
1.065647612E1,-8.842091192E-4,-7.801642641E-5,-4.966859706E-7,8.876443973E-4
1.066652513E1,-2.045704168E-4,5.257222801E-4,-3.206086694E-4,6.488627668E-4
1.067657512E1,2.048134338E-3,3.552590497E-4,-8.304748917E-4,2.238470863E-3
1.068662412E1,1.633213949E-3,-7.904325612E-4,7.389259408E-4,1.959128118E-3
1.069667312E1,-1.003697515E-3,-6.804475561E-4,1.649087644E-4,1.223769781E-3
1.070672312E1,-1.543520251E-3,1.199211460E-3,-5.525468150E-4,2.031223984E-3
1.071677213E1,-1.754840370E-3,-6.487509236E-4,-2.622954780E-4,1.889217140E-3
1.072682112E1,-2.616639249E-3,-2.825660631E-4,2.157419804E-4,2.640679674E-3
1.073687113E1,1.985331532E-3,-3.993855789E-4,1.156514743E-3,2.332075574E-3
1.074692012E1,6.545499782E-4,1.102903858E-3,-1.393794082E-4,1.290061709E-3
1.075696912E1,1.082832925E-3,1.840265468E-4,-7.878796896E-4,1.351720133E-3
1.076701912E1,-3.930909443E-4,1.687381417E-3,-1.764727174E-3,2.473062582E-3
1.077706812E1,1.118010259E-4,1.259091310E-3,-7.708254270E-4,1.480534443E-3
1.078711713E1,2.228747588E-3,2.601398155E-4,1.461008796E-4,2.248629360E-3
1.079716712E1,1.997049898E-3,6.503788754E-4,4.577568616E-4,2.149591199E-3
1.080721613E1,-3.356130328E-4,8.826064877E-4,8.210120141E-4,1.251275768E-3
1.081726512E1,-8.968265029E-4,-1.280130818E-4,-2.045204863E-3,2.236861206E-3
1.082731512E1,1.302145654E-3,5.391086452E-4,-3.692777827E-4,1.456910264E-3
1.083736413E1,1.628593891E-3,1.967423595E-4,-1.343454001E-3,2.120352393E-3
1.084741312E1,1.954298466E-3,-1.250685658E-3,2.549752244E-4,2.334204249E-3
1.085746313E1,-7.349361549E-4,-6.887922063E-5,6.137652090E-4,9.599912659E-4
1.086751212E1,6.826644531E-4,5.564312451E-4,-1.138861175E-3,1.439670539E-3
1.087756113E1,-8.183113532E-4,-2.466309816E-4,-1.244161511E-3,1.509436377E-3
1.088761112E1,1.614656067E-4,1.472504809E-4,-6.321670953E-4,6.688714994E-4
1.089766012E1,2.587673080E-4,5.514980294E-4,-1.002809382E-3,1.173344473E-3
1.090770913E1,8.992291987E-5,-1.542545389E-3,-7.133238250E-4,1.701870527E-3
1.091775912E1,-7.359369192E-5,-1.382228453E-3,-1.305402257E-3,1.902642000E-3
1.092780813E1,5.850060261E-4,1.286525279E-3,1.087980578E-3,1.783558545E-3
1.093785712E1,-1.569018117E-3,2.222741023E-4,-2.207324142E-4,1.599983258E-3
1.094790713E1,-1.847584848E-3,1.453086734E-4,1.031079446E-4,1.856156144E-3
1.095795612E1,-6.548430538E-4,-9.799702093E-4,7.652797503E-4,1.405280802E-3
1.096800512E1,6.554200081E-5,5.609346554E-4,6.060738815E-5,5.679935712E-4
1.097805513E1,8.443440311E-4,-1.434194390E-3,4.392990377E-6,1.664286540E-3
1.098810412E1,9.652515873E-4,1.610863954E-3,1.726659248E-3,2.551067514E-3
1.099815313E1,-4.806130310E-4,-2.985522151E-4,3.407927579E-4,6.605013357E-4
1.100820312E1,5.284586805E-4,1.045811456E-3,-5.561598809E-4,1.297036619E-3
1.101825212E1,1.687176118E-4,5.399528891E-4,8.357364568E-4,1.009192836E-3
1.102830112E1,-1.423396170E-4,1.425720286E-3,-7.658886025E-4,1.624661273E-3
1.103835112E1,1.086003729E-3,-6.186813116E-4,-1.578919590E-3,2.013742222E-3
1.104840013E1,5.246094079E-4,-5.132202059E-4,2.426826395E-4,7.729843945E-4
1.105844912E1,-1.108193072E-3,-1.397071872E-3,-1.252525835E-4,1.787621299E-3
1.106849913E1,7.984315744E-5,-1.078291330E-3,1.724888571E-4,1.094915307E-3
1.107854812E1,1.423043665E-3,-1.723800786E-3,-1.080030808E-3,2.482540829E-3
1.108859712E1,1.984171569E-3,-2.284361981E-4,-2.704298240E-4,2.015502965E-3
1.109864712E1,-1.491221250E-3,2.090845257E-3,-6.720002275E-4,2.654610896E-3
1.110869612E1,-2.097356599E-3,-1.936145127E-4,1.554402290E-3,2.617739055E-3
1.111874513E1,2.420652017E-4,-3.723232076E-4,-3.634882742E-4,5.738848824E-4
1.112879512E1,1.501861552E-4,4.695020616E-4,1.529486501E-3,1.606958936E-3
1.113884413E1,3.096527653E-4,-7.323520258E-4,1.459114719E-4,8.084024260E-4
1.114889312E1,7.599933306E-4,5.662054755E-4,8.119679987E-4,1.247986592E-3
1.115894312E1,1.765155466E-4,-4.728119820E-4,-9.963894263E-4,1.116915752E-3
1.116899212E1,7.877110038E-4,1.445462927E-3,1.549592591E-3,2.260771748E-3
1.117904163E1,-7.025032537E-4,1.785491593E-3,-2.255492145E-3,2.961205138E-3
1.118909162E1,1.365175005E-3,-2.408454893E-3,1.402093330E-3,3.103260136E-3
1.119914063E1,1.495852834E-3,-8.023963310E-4,1.445431379E-3,2.229503856E-3
1.120918962E1,-1.405661227E-3,8.993637748E-4,1.292565954E-3,2.110797345E-3
1.121923962E1,-4.098973237E-3,-1.340316609E-3,-5.542425206E-4,4.348012762E-3
1.122928862E1,2.156259492E-3,-2.164626494E-4,-1.034943154E-3,2.401545004E-3
1.123933762E1,2.723652869E-6,7.928730920E-4,-7.880027406E-4,1.117856644E-3
1.124938763E1,-9.315132629E-4,1.344147604E-3,1.545991632E-3,2.250453258E-3
1.125943662E1,-8.991712239E-4,2.281895839E-3,-6.203036755E-4,2.529888171E-3
1.126948563E1,6.065800553E-4,-8.055069484E-4,-5.113803782E-4,1.130615186E-3
1.127953562E1,1.949142665E-3,-3.479123116E-4,1.407731790E-3,2.429384469E-3
1.128958462E1,1.389079960E-3,-2.139421180E-3,-5.805843975E-4,2.616055115E-3
1.129963362E1,-3.371993080E-5,-3.723446280E-4,-2.492609783E-4,4.493423984E-4
1.130968362E1,6.957199075E-4,-3.723446280E-4,1.945195254E-5,7.893320532E-4
1.131973263E1,1.077635214E-3,3.902548924E-4,-1.623655902E-3,1.987424218E-3
1.132978162E1,1.013186760E-3,9.977221489E-4,-9.916877607E-4,1.733620925E-3
1.133983163E1,1.522386912E-3,1.225511078E-3,2.663349733E-4,1.972428359E-3
1.134988062E1,-2.056102501E-3,-2.040589694E-3,1.078599133E-3,3.091106579E-3
1.135992962E1,-1.188996597E-3,-1.959783491E-3,3.451817902E-4,2.318105845E-3
1.136997963E1,5.548413028E-4,9.511178359E-5,6.722179241E-4,8.767964759E-4
1.138002862E1,-1.306430204E-5,1.251597423E-3,-1.669236808E-3,2.086388820E-3
1.139007763E1,-1.527870423E-3,-5.380469374E-4,1.112168655E-3,1.964892275E-3
1.140012762E1,-9.925471386E-5,1.093649305E-3,-1.521272236E-3,1.876216809E-3
1.141017663E1,-7.384134224E-4,-7.327464409E-4,-1.318073017E-3,1.679133171E-3
1.142022562E1,-8.364634123E-4,1.329672989E-3,-1.508790883E-3,2.178107258E-3
1.143027562E1,8.716881275E-4,-6.708935834E-4,3.983732313E-5,1.100693147E-3
1.144032463E1,2.182510216E-4,3.129108809E-4,-2.606197959E-3,2.633973145E-3
1.145037362E1,-2.056887373E-3,2.079824917E-4,-1.078866189E-4,2.070188858E-3
1.146042363E1,2.324025612E-3,-1.878146082E-3,-1.532018650E-3,3.357917345E-3
1.147047262E1,-2.959922422E-4,-3.963634372E-4,-3.159372136E-5,4.956950121E-4
1.148052163E1,7.451697020E-4,1.698062755E-3,1.403216738E-4,1.859673406E-3
1.149057162E1,-2.060204279E-3,-1.648184843E-4,-1.023479737E-3,2.306321221E-3
1.150062062E1,-1.317140413E-5,3.531991970E-3,-1.505929627E-3,3.839656860E-3
1.151066963E1,9.149402613E-4,-4.491670989E-4,-1.656398177E-3,1.944870609E-3
1.152071962E1,3.091424005E-3,-1.328550279E-4,-4.994275514E-5,3.094680455E-3
1.153076863E1,7.292000228E-4,-2.606259659E-5,6.153148133E-4,9.544759042E-4
1.154081762E1,2.100332931E-4,3.249451984E-3,-1.721697627E-3,3.683380906E-3
1.155086762E1,3.546429507E-4,1.192159951E-3,-2.305728849E-3,2.619809630E-3
1.156091662E1,5.383972311E-4,6.964276545E-4,-3.129845718E-4,9.342603484E-4
1.157096562E1,-3.929102095E-4,1.605630852E-3,1.072391751E-3,1.970394106E-3
1.158101563E1,-5.278186291E-4,-1.504489221E-3,1.480396255E-3,2.175696071E-3
1.159106462E1,-9.557885933E-4,3.621205688E-4,2.002145629E-4,1.041512848E-3
1.160111363E1,-9.258933715E-4,1.240750309E-3,-1.705950126E-3,2.303693924E-3
1.161116362E1,-4.004517687E-4,5.246265791E-4,-1.637134701E-4,6.799976227E-4
1.162121262E1,-1.686256379E-3,1.331408508E-3,-1.221204293E-3,2.471325376E-3
1.163126162E1,-8.111417992E-4,7.305992767E-4,-5.309128901E-4,1.213917138E-3
1.164131162E1,-1.392676495E-4,1.432132442E-3,9.743825067E-4,1.737762952E-3
1.165136063E1,2.713917929E-4,-2.205213066E-3,6.553359563E-4,2.316480820E-3
1.166140962E1,3.236021614E-3,5.387770943E-4,-8.204253390E-6,3.280576771E-3
1.167145963E1,-7.225009031E-4,2.483151387E-3,-6.287208525E-4,2.661454166E-3
1.168150862E1,-5.283117061E-4,1.401857939E-3,3.220196813E-4,1.532323600E-3
1.169155762E1,1.588368788E-3,-1.109503210E-3,-1.259365352E-3,2.310825365E-3
1.170160763E1,9.883504827E-4,-1.029227860E-3,4.534160253E-4,1.497241716E-3
1.171165662E1,-2.478888491E-4,-9.693065658E-4,-2.315738937E-3,2.522627781E-3
1.172170563E1,5.719680921E-4,1.498935744E-3,8.547503967E-5,1.606630588E-3
1.173175462E1,1.208463567E-3,7.569789886E-4,-1.565418439E-3,2.117530702E-3
1.174180463E1,-1.315227128E-4,9.373808280E-5,-2.484944183E-3,2.490187271E-3
1.175185362E1,-1.365631470E-3,-1.784833148E-5,-9.080866585E-4,1.640088184E-3
1.176190262E1,-2.371987212E-4,6.551374681E-4,-8.491302142E-4,1.098403594E-3
1.177195263E1,-1.764786430E-4,-4.415521398E-4,6.193714216E-5,4.795302005E-4
1.178200162E1,-4.581692046E-4,9.502684698E-4,-3.516959259E-4,1.112033816E-3
1.179205063E1,8.262734045E-4,6.509288214E-4,2.587005729E-4,1.083218379E-3
1.180210062E1,-1.025622827E-3,5.021430552E-4,-8.961465210E-5,1.145460875E-3
1.181214963E1,2.971693175E-4,1.729594544E-3,-1.464870991E-3,2.285968921E-3
1.182219862E1,-7.494142046E-4,1.335337292E-3,1.920849318E-4,1.543257579E-3
1.183224862E1,-1.378186396E-3,1.456244849E-3,3.422872396E-4,2.034012625E-3
1.184229763E1,4.982724204E-4,3.546909429E-4,-1.440897933E-3,1.565333167E-3
1.185234662E1,-1.911089406E-3,-2.198215108E-3,1.575664501E-3,3.311665895E-3
1.186239663E1,2.327865455E-3,1.722592860E-4,-5.193848629E-4,2.391315846E-3
1.187244562E1,1.028775587E-3,-1.755496487E-4,7.236946840E-5,1.046152105E-3
1.188249463E1,-1.227426110E-3,1.685691997E-3,-5.985075841E-4,2.169410909E-3
1.189254462E1,5.046938895E-4,-1.006231643E-3,-1.201447216E-3,1.646418372E-3
1.190259362E1,-2.667675726E-4,1.090269536E-3,-2.581186709E-4,1.151728200E-3
1.191264263E1,8.805221878E-4,3.387257457E-4,3.802409628E-4,1.017171394E-3
1.192269262E1,-4.564292030E-4,1.716256142E-3,-1.441876637E-3,2.287546939E-3
1.193274163E1,6.687563146E-4,4.363409244E-4,-1.296734321E-3,1.522875014E-3
1.194279062E1,-1.089347643E-3,-1.056759618E-3,9.343714919E-5,1.520575443E-3
1.195284062E1,-1.005158992E-4,8.543245494E-4,-1.177689643E-3,1.458398703E-3
1.196288962E1,3.132610582E-3,1.932416577E-3,9.990154067E-4,3.813858239E-3
1.197293862E1,1.690450299E-4,3.142803907E-4,1.149750198E-3,1.203857925E-3
1.198298863E1,-3.056401387E-3,-1.114093233E-3,-1.623441931E-3,3.635705829E-3
1.199303762E1,1.640349627E-3,3.216168843E-4,1.279669930E-3,2.105169696E-3
1.200308663E1,1.767250593E-3,-1.031921711E-3,1.823983155E-3,2.741341209E-3
1.201313662E1,9.975970024E-4,-2.053509932E-3,-7.086831029E-4,2.390467436E-3
1.202318562E1,-1.955816522E-3,1.403600909E-3,-1.515908516E-3,2.844871246E-3
1.203323462E1,1.907631056E-3,-1.267016865E-3,4.363863263E-5,2.290478621E-3
1.204328462E1,5.324186641E-4,1.187735703E-3,2.122847829E-3,2.490114182E-3
1.205333363E1,5.470660981E-4,-1.655188389E-3,-4.463035148E-4,1.799476798E-3
1.206338262E1,2.611328091E-4,8.505769074E-6,2.000201494E-4,3.290452131E-4
1.207343263E1,3.341034171E-4,-9.947069921E-4,1.184058143E-3,1.582106437E-3
1.208348162E1,-2.175844973E-3,-9.496011771E-4,7.305430481E-4,2.483895506E-3
1.209353062E1,3.818548576E-4,1.048035920E-3,-7.770723896E-4,1.359424113E-3
1.210358063E1,-1.130143646E-4,-6.007398479E-4,1.340982271E-4,6.258138269E-4
1.211362962E1,3.176788567E-3,-3.461414017E-4,-5.836237106E-4,3.248448261E-3
1.212367863E1,7.008432876E-4,-2.471841173E-3,9.475514526E-4,2.738436389E-3
1.213372862E1,-8.491164190E-4,-9.509101510E-4,1.305214013E-3,1.824503337E-3
1.214377763E1,1.263615442E-3,-4.292842932E-4,2.592040459E-3,2.915421536E-3
1.215382662E1,3.581406199E-4,-9.533939883E-4,-1.068474376E-3,1.476096979E-3
1.216387662E1,-1.515594777E-3,-9.380085394E-4,-1.602843986E-4,1.789574987E-3
1.217392563E1,-5.334208836E-4,-1.340678893E-3,1.643549185E-4,1.452229415E-3
1.218397454E1,-1.355545828E-4,1.243347302E-3,3.155870363E-3,3.394673078E-3
1.219402454E1,4.660559352E-5,1.285958104E-3,-1.373633859E-3,1.882214202E-3
1.220407354E1,3.498707083E-4,-4.767635837E-4,-1.610511681E-3,1.715651743E-3
1.221412254E1,1.103278948E-3,-8.568167686E-7,-6.978464662E-4,1.305455806E-3
1.222417254E1,1.256787684E-3,-1.318537630E-3,-2.012088429E-3,2.714140124E-3
1.223422154E1,-5.067576421E-4,-1.479925122E-3,9.674563771E-4,1.839280706E-3
1.224427054E1,-1.775038894E-3,6.404770538E-4,-1.041115029E-4,1.889924109E-3
1.225432054E1,7.166145369E-4,6.623147056E-4,1.008290914E-3,1.403156346E-3
1.226436954E1,-8.220706368E-4,-1.394751947E-3,2.302872716E-3,2.815023245E-3
1.227441854E1,-2.622741449E-4,-4.613138735E-4,6.620991044E-4,8.485124872E-4
1.228446854E1,1.533976756E-4,6.784740835E-4,-2.076370874E-4,7.259277437E-4
1.229451754E1,-4.058661580E-4,1.393000130E-3,-1.037738402E-4,1.454629062E-3
1.230456654E1,2.722943318E-4,2.267788164E-3,-4.045352107E-4,2.319624129E-3
1.231461654E1,-1.003892394E-3,9.031845257E-4,-7.563480176E-5,1.352502440E-3
1.232466554E1,1.642951975E-5,9.592599235E-4,-5.404329859E-4,1.101143652E-3
1.233471454E1,2.820471767E-3,1.383501571E-3,4.732667003E-5,3.141874822E-3
1.234476454E1,2.169924555E-4,-9.145075455E-4,-6.024651229E-4,1.116411215E-3
1.235481354E1,-7.547950372E-4,1.037589740E-3,-3.670692910E-3,3.888482281E-3
1.236486254E1,-1.107392018E-3,5.283020437E-4,7.157766959E-4,1.420477528E-3
1.237491254E1,3.480255255E-4,-5.654580891E-4,1.368054654E-4,6.779235593E-4
1.238496154E1,1.233671326E-3,-3.498452716E-4,8.290221449E-4,1.526962466E-3
1.239501054E1,1.284005120E-3,1.256839838E-3,-1.546517480E-3,2.370660634E-3
1.240506054E1,8.810102590E-4,3.497358412E-4,-3.432750702E-3,3.561217715E-3
1.241510954E1,1.298327581E-3,5.412171595E-4,-1.462277956E-3,2.028996635E-3
1.242515854E1,8.663673070E-4,4.916735925E-4,-4.113628529E-5,9.970092408E-4
1.243520854E1,1.999009633E-3,-8.836295456E-5,1.984996721E-3,2.818520802E-3
1.244525754E1,4.676951503E-4,1.204031520E-3,7.457152242E-4,1.491483104E-3
1.245530654E1,-1.304904814E-3,6.761932746E-4,1.046119723E-3,1.803990131E-3
1.246535654E1,2.100015990E-6,-9.510247037E-4,-1.436405233E-3,1.722704963E-3
1.247540554E1,-4.557054490E-5,-9.345132858E-4,-1.341862953E-3,1.635844718E-3
1.248545454E1,9.403674630E-4,-2.186344005E-3,-6.088658702E-4,2.456645828E-3
1.249550454E1,7.901651552E-4,2.508809324E-3,-1.241632970E-3,2.908631574E-3
1.250555354E1,3.781837877E-4,-2.348559443E-3,2.582512097E-4,2.392790865E-3
1.251560254E1,1.990195131E-3,-1.010321081E-3,-9.540197207E-4,2.427298699E-3
1.252565254E1,2.565275179E-3,1.279877033E-3,-8.998604608E-4,3.004741389E-3
1.253570154E1,3.907774575E-3,1.467097551E-3,-1.027763356E-4,4.175361101E-3
1.254575054E1,-2.704365761E-5,-5.400204100E-4,8.237308357E-4,9.853354212E-4
1.255580054E1,9.290311718E-4,-9.234296158E-5,-1.381899230E-3,1.667714491E-3
1.256584954E1,-7.292258088E-4,7.884716615E-4,-2.006937750E-3,2.276237460E-3
1.257589854E1,3.048468381E-3,-8.014356717E-4,6.378476974E-4,3.215945940E-3
1.258594854E1,-5.833618343E-4,1.584381796E-3,-7.525596302E-4,1.848492008E-3
1.259599754E1,4.723152379E-4,-2.409294480E-3,2.665075008E-3,3.623590260E-3
1.260604654E1,3.244415275E-4,1.476310659E-3,1.321991091E-3,2.008087625E-3
1.261609654E1,-3.044190817E-3,2.085908316E-3,2.655150602E-4,3.699812087E-3
1.262614554E1,-1.860610326E-3,1.172727440E-3,-5.372107844E-4,2.264013220E-3
1.263619454E1,-2.632463002E-4,9.945621714E-4,-1.611724147E-4,1.041359244E-3
1.264624454E1,1.526058302E-3,2.941098064E-4,3.539378522E-4,1.593934291E-3
1.265629354E1,9.020796278E-4,6.930516101E-4,-1.091858139E-4,1.142799077E-3
1.266634254E1,6.382087013E-4,1.807985827E-4,-2.300433349E-3,2.394157903E-3
1.267639254E1,1.284557977E-3,4.732138477E-4,-1.123803668E-4,1.373553744E-3
1.268644154E1,-4.057822516E-4,-6.050895900E-5,-1.140389475E-3,1.211944192E-3
1.269649054E1,7.425728254E-4,3.837062977E-4,1.003721613E-3,1.306178395E-3
1.270654054E1,1.912458800E-3,-1.059768721E-3,-6.626092363E-5,2.187464037E-3
1.271658954E1,5.257508601E-4,7.463870570E-4,4.967313726E-4,1.039350596E-3
1.272663854E1,-3.250560258E-5,4.637199454E-4,-2.520530485E-3,2.563038573E-3
1.273668854E1,-5.221297033E-5,-1.949370373E-3,1.406033989E-3,2.404101209E-3
1.274673754E1,5.520774284E-4,-9.713470936E-4,-1.349960105E-3,1.752340420E-3
1.275678654E1,9.598074248E-4,-1.132762991E-4,-2.684504143E-4,1.003059040E-3
1.276683654E1,-1.267796906E-4,1.383446157E-3,2.001679968E-3,2.436538334E-3
1.277688554E1,-3.219774924E-3,1.434844919E-3,-1.840995275E-3,3.976807024E-3
1.278693454E1,9.180636262E-4,-8.865185082E-4,2.047272865E-4,1.292543674E-3
1.279698454E1,2.996776020E-4,1.360656694E-3,1.589304651E-3,2.113547392E-3
1.280703354E1,-1.521169208E-3,-2.047783695E-3,-4.610425094E-4,2.592283553E-3
1.281708254E1,1.998730702E-3,1.205533743E-3,6.798557006E-4,2.431139609E-3
1.282713254E1,-5.015122006E-4,-6.148787215E-4,-7.816413417E-4,1.113801381E-3
1.283718154E1,8.037030348E-4,-1.917430665E-3,-7.656623493E-4,2.215562628E-3
1.284723054E1,-9.156041779E-4,-7.574791089E-4,-1.099399058E-3,1.618883535E-3
1.285728054E1,1.122779213E-3,-5.955593660E-4,-7.396060391E-4,1.470490127E-3
1.286732954E1,-1.563955331E-3,9.063691832E-4,-4.175007343E-3,4.549521699E-3
1.287737854E1,2.206281759E-3,-2.339491155E-3,9.563751519E-5,3.217148520E-3
1.288742754E1,-1.454582205E-3,5.983388983E-4,8.390075527E-5,1.575074019E-3
1.289747754E1,2.074966906E-4,-2.803583164E-3,-3.301200923E-5,2.811445042E-3
1.290752654E1,-4.050664429E-4,1.289850567E-3,-1.135105966E-3,1.765292854E-3
1.291757554E1,-1.657284796E-3,-1.700944267E-4,-1.456815866E-3,2.213105844E-3
1.292762554E1,5.594814429E-4,2.333465032E-3,-5.341970245E-4,2.458341921E-3
1.293767454E1,6.926394999E-4,3.829658963E-4,-1.180013642E-3,1.420860496E-3
1.294772354E1,-1.763629960E-3,1.008925959E-3,-4.156653304E-4,2.073909326E-3
1.295777354E1,1.898749149E-3,1.288291533E-3,-1.767485868E-3,2.896368364E-3
1.296782254E1,2.043766901E-3,-7.871910930E-5,-2.694065683E-3,3.382479822E-3
1.297787154E1,1.984626579E-4,6.528515369E-4,7.544615073E-4,1.017258434E-3
1.298792154E1,2.160520991E-3,-1.993719488E-4,1.167503535E-3,2.463871878E-3
1.299797054E1,-1.431132841E-4,8.563050069E-4,1.331021660E-3,1.589137608E-3
1.300801954E1,-5.857145879E-4,1.096157357E-4,1.175644575E-4,6.073702246E-4
1.301806954E1,-1.648582169E-3,1.400183421E-3,-4.621990956E-5,2.163440098E-3
1.302811854E1,-8.256644942E-4,5.194838159E-4,-3.886112245E-4,1.050049511E-3
1.303816754E1,1.954942010E-3,-8.898610249E-4,-1.210462768E-3,2.465536659E-3
1.304821754E1,2.290082863E-3,1.501263119E-3,7.569923764E-4,2.841004739E-3
1.305826654E1,2.993157366E-3,-1.053241082E-3,3.255836666E-3,4.546293016E-3
1.306831554E1,-3.124866635E-5,-1.889187843E-4,2.356986282E-3,2.364751810E-3
1.307836554E1,-5.351186846E-4,-1.020890661E-3,-1.406060415E-3,1.818124209E-3
1.308841454E1,-1.274397946E-3,-8.220924065E-5,9.401009884E-4,1.585761127E-3
1.309846354E1,3.493313561E-4,-1.199671533E-3,5.052067572E-4,1.347767803E-3
1.310851354E1,3.635647590E-4,1.284094062E-3,1.126846415E-3,1.746671044E-3
1.311856254E1,4.916628241E-4,6.763609126E-4,3.514103591E-3,3.612218220E-3
1.312861154E1,-3.216610057E-3,-2.241665032E-3,3.516760771E-4,3.936409333E-3
1.313866154E1,1.813302049E-3,4.599010572E-5,1.271715737E-4,1.818337708E-3
1.314871054E1,-2.427762840E-3,-1.328604296E-3,1.407354604E-3,3.104813805E-3
1.315875954E1,-2.159702126E-5,-1.044977456E-3,8.722575149E-5,1.048833946E-3
1.316880954E1,-6.340803811E-4,-4.728459753E-4,-5.376300542E-4,9.563928697E-4
1.317885804E1,-1.284424332E-3,2.936532255E-3,-1.786918961E-3,3.669611277E-3
1.318890704E1,-2.991975634E-5,-9.127915837E-4,-5.645625060E-5,9.150251228E-4
1.319895704E1,6.031136145E-4,3.833686933E-4,1.039700815E-3,1.261624101E-3
1.320900604E1,-1.948411809E-3,1.492484007E-3,-1.189563307E-3,2.727430650E-3
1.321905504E1,1.003702171E-3,-1.023137942E-3,2.069983166E-4,1.448129000E-3
1.322910504E1,1.965350239E-4,1.101955771E-3,1.653106883E-3,1.996420523E-3
1.323915404E1,1.622125157E-3,-2.250697929E-3,2.456262009E-4,2.785186426E-3
1.324920304E1,7.834153948E-4,-7.420680486E-4,-8.089914918E-4,1.348655591E-3
1.325925304E1,-1.897056121E-3,-9.385496378E-5,1.628333470E-3,2.501819452E-3
1.326930204E1,-8.788411506E-4,-2.010134980E-3,2.602443565E-4,2.209237772E-3
1.327935104E1,2.048239112E-3,-2.587241819E-3,8.389492286E-4,3.404840598E-3
1.328940104E1,-1.328819548E-3,-7.381658070E-4,2.458277624E-3,2.890290474E-3
1.329945004E1,4.508829676E-3,-7.496173494E-4,-1.340455376E-3,4.763222840E-3
1.330949904E1,7.362351753E-4,-1.784901135E-3,-1.235557138E-4,1.934730035E-3
1.331954904E1,1.146894647E-3,4.662685096E-4,-5.810867879E-4,1.367638662E-3
1.332959804E1,6.031652447E-4,-2.531260252E-4,-8.998939302E-5,6.602872011E-4
1.333964704E1,-4.919265630E-4,-2.070999704E-3,1.249580644E-3,2.468295627E-3
1.334969704E1,-1.048424980E-3,2.304926515E-3,2.106582979E-3,3.293869005E-3
1.335974604E1,5.449443124E-4,2.286396921E-5,-1.259386307E-3,1.372421558E-3
1.336979504E1,6.356852246E-4,-6.085806526E-4,-4.189647152E-4,9.746781767E-4
1.337984504E1,5.094513763E-4,1.155328937E-4,2.365636639E-3,2.422627760E-3
1.338989404E1,-5.011181929E-4,1.882691868E-4,2.258625813E-3,2.321196953E-3
1.339994304E1,9.148845566E-4,1.797471195E-4,-2.314296435E-4,9.606677150E-4
1.340999304E1,-1.169807976E-3,-1.311490312E-3,-1.215381781E-5,1.757442817E-3
1.342004204E1,-1.724544214E-3,-5.996269174E-4,1.517565921E-3,2.374154905E-3
1.343009104E1,-1.160095097E-3,-1.195246819E-3,2.093248302E-3,2.675093278E-3
1.344014104E1,6.971933763E-4,-1.338258851E-3,-4.031989083E-4,1.561917001E-3
1.345019004E1,-1.757259248E-3,-2.353913151E-4,-1.607001992E-3,2.392869520E-3
1.346023904E1,-2.024640562E-3,6.506424397E-4,-1.353735337E-3,2.520933230E-3
1.347028904E1,-1.852881745E-3,-9.898515418E-5,1.750925905E-3,2.551217425E-3
1.348033804E1,3.900324518E-4,2.485574223E-4,-1.000385848E-3,1.102124290E-3
1.349038704E1,8.808526327E-4,-8.541028947E-4,1.073437976E-3,1.630233788E-3
1.350043704E1,1.189513016E-3,5.323579535E-5,8.092523785E-4,1.439675198E-3
1.351048604E1,3.122235648E-5,6.788517348E-4,-1.964937546E-4,7.074067494E-4
1.352053504E1,5.308313994E-4,-1.443317160E-4,2.106075175E-3,2.176732933E-3
1.353058504E1,-9.727327852E-4,1.339684241E-3,7.105357945E-4,1.801617066E-3
1.354063404E1,-1.453699660E-3,-4.156054929E-4,2.786203520E-3,3.170000108E-3
1.355068304E1,-3.369135666E-4,7.841554470E-4,-1.011921326E-3,1.323780679E-3
1.356073304E1,-2.345735906E-3,-9.948359802E-4,1.168675022E-3,2.803208318E-3
1.357078204E1,2.429189917E-4,2.331371419E-3,-4.057309707E-4,2.378848451E-3
1.358083104E1,-8.284708019E-4,5.177590065E-4,2.534014056E-4,1.009282186E-3
1.359088104E1,-4.852590500E-4,-4.768054932E-4,2.599899191E-3,2.687432907E-3
1.360093004E1,-5.073632929E-4,-3.899866715E-4,-2.055572579E-3,2.152878478E-3
1.361097904E1,2.826597774E-4,-9.997179732E-4,6.557586021E-4,1.228556844E-3
1.362102904E1,-1.227885252E-3,3.971103579E-4,-1.071834005E-3,1.677565785E-3
1.363107804E1,-5.224684719E-5,1.138905063E-3,1.029659645E-3,1.536240040E-3
1.364112704E1,-1.812862582E-3,2.635237761E-4,1.294111600E-3,2.242908904E-3
1.365117704E1,-1.736908453E-3,1.276008785E-3,6.198624615E-4,2.242605374E-3
1.366122604E1,1.408817363E-3,-6.992579438E-4,2.473422326E-3,2.931133917E-3
1.367127504E1,5.537091056E-5,8.424618281E-4,5.422388786E-4,1.003409623E-3
1.368132504E1,-2.004317939E-3,9.615048766E-4,-9.665347170E-5,2.225112115E-3
1.369137404E1,3.591515706E-4,1.234527677E-3,2.444613026E-3,2.762097262E-3
1.370142304E1,9.482428432E-4,-2.347956877E-3,-1.676628832E-3,3.036963982E-3
1.371147304E1,2.220457187E-3,1.640228555E-3,1.117445761E-3,2.978164680E-3
1.372152204E1,-1.029664651E-3,-1.120404340E-3,1.166299335E-4,1.526144724E-3
1.373157104E1,9.655093891E-4,-1.421737019E-3,3.698642249E-4,1.757937450E-3
1.374162104E1,1.314073597E-4,-2.587344497E-4,5.653402186E-4,6.354690964E-4
1.375167004E1,-1.074907603E-3,2.312962897E-4,-7.548963185E-5,1.102099366E-3
1.376171904E1,6.438965211E-4,1.427588053E-3,1.546908054E-3,2.201257574E-3
1.377176904E1,1.806144835E-3,5.803979002E-4,-2.350692172E-3,3.020724181E-3
1.378181804E1,5.246317014E-4,1.403847244E-3,2.099372214E-4,1.513307352E-3
1.379186704E1,-1.395956730E-3,1.710900106E-3,-1.007381245E-3,2.427074645E-3
1.380191704E1,-1.646027435E-3,-1.491284464E-3,-1.905897516E-4,2.229273451E-3
1.381196604E1,6.624881644E-4,-2.805112395E-3,-6.550662802E-4,2.955783813E-3
1.382201504E1,1.529347035E-3,-3.976146691E-4,1.345233992E-3,2.075248002E-3
1.383206504E1,7.462755311E-4,-6.731278263E-4,1.292420784E-4,1.013277728E-3
1.384211404E1,-3.874321701E-4,3.742934205E-4,-1.053734100E-3,1.183450381E-3
1.385216304E1,6.713493494E-4,1.098730136E-3,-1.048382488E-3,1.660428770E-3
1.386221304E1,-8.953883080E-4,-9.513716213E-4,-8.478464442E-4,1.557456830E-3
1.387226204E1,-1.451392542E-3,3.496021964E-4,-1.053956104E-3,1.827453276E-3
1.388231104E1,-3.317735856E-3,-2.538063098E-3,4.368814407E-4,4.200000106E-3
1.389236104E1,-3.444713540E-3,-2.781428630E-3,-5.861671525E-4,4.466093206E-3
1.390241004E1,-4.409342073E-4,-3.129444085E-4,-5.816397606E-4,7.941422978E-4
1.391245904E1,6.204253295E-4,-3.287840635E-3,1.038507675E-3,3.503330104E-3
1.392250904E1,-7.234057994E-4,-1.019360032E-3,-1.003337908E-3,1.602840535E-3
1.393255804E1,1.064762706E-3,-9.213201702E-5,6.883238675E-4,1.271218972E-3
1.394260704E1,-1.426890725E-3,-1.042347867E-3,-9.577760356E-4,2.009935609E-3
1.395265604E1,-3.270087298E-3,5.409265868E-4,-1.261736848E-3,3.546555002E-3
1.396270604E1,-1.173646888E-3,4.865983501E-4,-9.482827736E-4,1.585391179E-3
1.397275504E1,5.019946839E-4,1.803167630E-3,-4.480174684E-4,1.924612121E-3
1.398280504E1,8.010676829E-4,1.162943430E-3,4.910131101E-4,1.495072148E-3
1.399285404E1,-1.374620595E-3,-1.078932546E-4,-3.470178694E-3,3.734081266E-3
1.400290304E1,6.082320760E-5,-7.470520213E-4,4.880776396E-4,8.944305269E-4
1.401295304E1,1.367190038E-3,4.613082856E-4,-2.050568350E-3,2.507358070E-3
1.402300204E1,-1.136714010E-3,-6.257938221E-4,1.735381200E-3,2.166860531E-3
1.403305104E1,1.121930312E-3,1.343479380E-3,-1.489717280E-3,2.298460799E-3
1.404310004E1,1.133914571E-3,-1.861368772E-3,2.300759777E-3,3.169219385E-3
1.405315004E1,-3.966920776E-4,-1.941369846E-4,5.313038127E-4,6.908961678E-4
1.406319904E1,1.749283168E-3,-4.996014759E-4,2.698317869E-3,3.254306771E-3
1.407324804E1,-1.196536818E-3,-1.421274617E-3,1.389181707E-3,2.319816309E-3
1.408329804E1,4.761946620E-4,-5.509536713E-4,1.232854091E-3,1.431866095E-3
1.409334704E1,-1.044684323E-3,-6.922073662E-4,-1.423471724E-3,1.896520002E-3
1.410339604E1,5.124660092E-4,1.040445175E-3,-1.936239423E-4,1.175856200E-3
1.411344604E1,-1.500475220E-3,1.007761341E-3,-5.809658905E-4,1.898560026E-3
1.412349504E1,-1.831506030E-3,7.156124339E-4,-7.815019344E-4,2.115953867E-3
1.413354404E1,1.708533615E-3,7.826136425E-5,1.626899233E-3,2.360511188E-3
1.414359404E1,-5.234615528E-4,2.172837034E-3,1.802667743E-3,2.871383597E-3
1.415364304E1,6.366807502E-4,1.614741050E-3,-7.303704624E-4,1.883133571E-3
1.416369204E1,-1.055491739E-3,-1.138168387E-3,-9.705876000E-4,1.830718541E-3
1.417374204E1,2.291039797E-3,4.886006936E-4,-1.614511129E-4,2.348118491E-3
1.418379075E1,1.344019780E-3,1.586622093E-3,-4.839599424E-4,2.134941699E-3
1.419383975E1,1.378297573E-3,-2.021770924E-4,-1.412437996E-3,1.983824808E-3
1.420388975E1,3.020555596E-5,-6.935303099E-4,-1.194591518E-3,1.381645961E-3
1.421393875E1,-3.678401699E-4,9.352816269E-4,-1.317018527E-3,1.656682200E-3
1.422398775E1,5.368356360E-4,-3.861789592E-4,-2.505054697E-3,2.590873545E-3
1.423403775E1,-6.752470508E-4,-2.531008795E-4,-1.472914475E-3,1.639968197E-3
1.424408675E1,1.543275721E-4,-3.429719713E-3,3.896205453E-5,3.433411182E-3
1.425413575E1,1.775607467E-3,3.113978542E-3,1.598683186E-3,3.924975435E-3
1.426418575E1,1.454164041E-3,-1.208864618E-3,7.302263402E-4,2.027110562E-3
1.427423475E1,-1.075052191E-3,-3.089338774E-3,1.257126103E-3,3.504299832E-3
1.428428375E1,2.414221410E-3,-1.584120095E-3,1.248604036E-3,3.145936034E-3
1.429433375E1,-2.584710252E-3,-3.158459440E-4,-8.739158511E-5,2.605402663E-3
1.430438275E1,-2.432377543E-3,2.150241751E-3,-2.623253502E-3,4.173902136E-3
1.431443175E1,-1.867137384E-3,-9.299702942E-4,-9.300962556E-4,2.283883929E-3
1.432448175E1,-7.102602976E-4,2.966816537E-4,-1.250474597E-3,1.468392459E-3
1.433453075E1,7.302027661E-4,-2.367956098E-3,-4.766014172E-5,2.478443796E-3
1.434457975E1,1.025014673E-3,7.412843406E-4,6.365997251E-5,1.266574177E-3
1.435462975E1,7.253664080E-4,-3.718207590E-4,-1.832320122E-3,2.005443625E-3
1.436467875E1,9.421476861E-4,-2.472788794E-3,1.065199147E-3,2.852538502E-3
1.437472775E1,2.034204808E-4,-2.133607399E-3,9.974206332E-4,2.364002611E-3
1.438477775E1,-2.285442606E-4,-2.731229179E-4,1.171591342E-3,1.224522307E-3
1.439482675E1,1.940841088E-3,-1.572199631E-3,-1.142567256E-3,2.746659015E-3
1.440487575E1,-1.110076206E-3,-4.182518460E-4,-1.827639644E-4,1.200252663E-3
1.441492575E1,-1.922358526E-3,2.042730339E-4,-1.603372395E-3,2.511571781E-3
1.442497475E1,2.897696802E-3,-2.436707728E-4,1.479502884E-3,3.262660109E-3
1.443502375E1,-1.170496689E-3,4.474213347E-4,6.323115667E-4,1.403590491E-3
1.444507375E1,-1.339341281E-3,1.149430871E-3,-1.926986151E-3,2.613101992E-3
1.445512275E1,3.232920542E-3,-3.616227303E-3,-7.240470732E-4,4.904397955E-3
1.446517175E1,-1.994065708E-3,-4.111127928E-4,2.103697509E-3,2.927602258E-3
1.447522175E1,1.997144718E-4,-3.313120455E-3,-1.717164414E-3,3.737018416E-3
1.448527075E1,1.322503202E-3,-3.828443587E-4,2.985822503E-4,1.408806545E-3
1.449531975E1,-2.673279960E-5,-1.928582788E-5,1.665404416E-4,1.697713298E-4
1.450536975E1,6.221678632E-5,-1.759129111E-3,2.653437550E-4,1.780116138E-3
1.451541875E1,5.423132097E-4,2.036429942E-4,4.228245816E-4,7.171852713E-4
1.452546775E1,1.242191880E-3,-5.782609805E-4,-1.723919413E-4,1.380994355E-3
1.453551775E1,3.036874405E-4,1.484570093E-3,-7.439993205E-4,1.688108235E-3
1.454556675E1,-1.462521031E-3,1.521902159E-4,-1.630033017E-3,2.195253349E-3
1.455561575E1,1.269172411E-3,9.403945878E-4,1.996477367E-4,1.592168273E-3
1.456566575E1,-2.079219790E-3,-2.002398483E-3,-9.276682977E-4,3.032049322E-3
1.457571475E1,-8.115299279E-4,-1.496396493E-3,2.973309602E-4,1.728059313E-3
1.458576375E1,-1.118059852E-3,1.859222539E-4,-7.373071276E-4,1.352126739E-3
1.459581375E1,2.883535926E-4,-2.398872282E-3,-2.256372944E-3,3.305896986E-3
1.460586275E1,-1.038699527E-3,2.259795554E-3,3.721670946E-4,2.514772554E-3
1.461591175E1,-1.259518787E-3,-8.725374937E-5,-1.697489643E-4,1.273897760E-3
1.462596175E1,2.353136078E-4,5.854610354E-4,-8.690950926E-4,1.073994133E-3
1.463601075E1,-3.582554637E-4,-1.506120898E-4,-6.016722182E-5,3.932570068E-4
1.464605975E1,-6.290989113E-4,-1.308554318E-3,1.246561878E-4,1.457264220E-3
1.465610975E1,-6.689345464E-4,-2.817166969E-4,-1.007041661E-3,1.241358382E-3
1.466615875E1,-1.064413926E-3,-1.039386261E-3,3.658178030E-4,1.532032464E-3
1.467620775E1,-8.811973385E-4,-9.921723977E-4,-7.463619695E-4,1.522488425E-3
1.468625775E1,-1.670291880E-3,8.278316818E-4,-1.350899576E-3,2.302196760E-3
1.469630675E1,-1.736201812E-4,4.259538837E-4,6.503158947E-4,7.965497105E-4
1.470635575E1,-2.439276432E-4,1.565253828E-3,-1.481544459E-3,2.168984607E-3
1.471640575E1,1.245413208E-3,-3.670882434E-4,-1.563451719E-3,2.032286671E-3
1.472645475E1,-1.075265347E-3,1.641733572E-3,2.464325516E-4,1.977931670E-3
1.473650375E1,-1.006262260E-3,1.263821963E-3,2.642573090E-4,1.636961092E-3
1.474655375E1,1.050763298E-3,-1.352201216E-3,-6.260374794E-4,1.823314170E-3
1.475660275E1,-3.527772787E-4,1.166014932E-3,2.250841353E-4,1.238832312E-3
1.476665175E1,-6.984554930E-4,-1.272158697E-4,1.023499877E-3,1.245622716E-3
1.477670175E1,-1.680496382E-3,1.962473616E-4,3.554162686E-4,1.728844076E-3
1.478675075E1,-6.715336349E-5,2.581374254E-3,-1.156460261E-3,2.829382079E-3
1.479679975E1,1.071919454E-3,-7.494846359E-4,5.062254495E-4,1.402498749E-3
1.480684975E1,4.274345119E-4,-7.518818602E-4,2.329850686E-4,8.957168280E-4
1.481689875E1,2.022336703E-3,1.058573835E-4,2.364015672E-4,2.038856843E-3
1.482694775E1,-1.055478468E-3,1.557546668E-3,-1.348978258E-3,2.315108800E-3
1.483699675E1,7.203900022E-4,2.565733157E-4,-2.340378123E-4,7.997282784E-4
1.484704675E1,-9.856310207E-4,1.129024662E-3,-3.858379787E-4,1.547590431E-3
1.485709575E1,2.249985700E-3,-1.234547235E-3,1.220404636E-3,2.841818081E-3
1.486714575E1,4.571455647E-4,2.329295035E-3,-1.927451696E-3,3.057722595E-3
1.487719475E1,-9.292093455E-4,4.552556202E-4,2.138256095E-4,1.056602612E-3
1.488724375E1,-1.001913566E-3,-1.066474710E-3,4.340690793E-4,1.526307658E-3
1.489729375E1,1.095579792E-4,6.397916004E-4,1.255135750E-3,1.413047060E-3
1.490734275E1,3.809340997E-4,-3.628889099E-4,-1.083918498E-3,1.204856199E-3
1.491739175E1,-2.283085487E-4,9.833662771E-4,-3.147343523E-4,1.057445857E-3
1.492744175E1,2.737920266E-3,-1.086974982E-3,-8.271265542E-4,3.059715727E-3
1.493749075E1,-2.331942087E-3,3.613241483E-3,-8.049507160E-4,4.375090121E-3
1.494753975E1,1.961966336E-4,-4.166541621E-4,-1.799375052E-3,1.857375672E-3
1.495758875E1,1.481862972E-3,-7.990645245E-4,-1.164683490E-3,2.047171124E-3
1.496763875E1,5.723934155E-4,1.702176407E-3,-5.388406571E-4,1.874936798E-3
1.497768775E1,1.684680581E-3,1.348463818E-3,2.827417338E-4,2.176337800E-3
1.498773675E1,1.925696619E-3,-5.165478215E-4,6.039335858E-6,1.993781732E-3
1.499778675E1,-8.130754577E-4,1.687203068E-3,-2.192322281E-4,1.885685197E-3
1.500783575E1,-2.676600416E-4,1.042451710E-3,-5.553231458E-4,1.211086810E-3
1.501788475E1,-8.650056552E-4,-2.106605098E-5,-1.239412930E-3,1.511563089E-3
1.502793475E1,4.418074677E-4,9.829457849E-4,-1.290812041E-3,1.681538575E-3
1.503798375E1,-3.068415448E-3,9.224992245E-4,5.661901669E-4,3.253728551E-3
1.504803275E1,-1.733106561E-3,-3.952328116E-4,9.022810846E-4,1.993484006E-3
1.505808275E1,1.683813869E-3,-5.449159071E-4,7.306884509E-4,1.914697914E-3
1.506813175E1,-2.043280052E-3,-1.879958436E-3,-7.167395670E-4,2.867569127E-3
1.507818075E1,3.039526055E-4,2.965293825E-4,-1.257775351E-3,1.327522390E-3
1.508823075E1,4.688022600E-4,-5.554035306E-5,-6.680970546E-5,4.767848850E-4
1.509827975E1,-1.387795783E-3,-1.917990856E-3,-1.765520428E-4,2.373991719E-3
1.510832875E1,1.558192889E-3,-4.085111432E-4,6.339879474E-5,1.612099824E-3
1.511837875E1,2.257299609E-3,-7.804823108E-4,2.293363796E-4,2.399406039E-3
1.512842775E1,4.093321622E-4,1.365226693E-3,2.125584870E-4,1.441033606E-3
1.513847675E1,7.759933360E-4,-6.521549076E-4,1.729403622E-3,2.004571917E-3
1.514852675E1,-2.088236390E-3,-2.150981687E-3,-1.951084938E-3,3.576896123E-3
1.515857575E1,1.220726408E-3,-1.365019940E-3,3.227547277E-4,1.859468476E-3
1.516862475E1,-1.753025863E-4,-1.080078073E-4,-2.161175478E-3,2.170962029E-3
1.517867475E1,-3.543675703E-4,-1.667332835E-4,-1.071358100E-3,1.140694762E-3
1.518872417E1,-7.607658627E-4,1.733521931E-4,-6.053048419E-4,9.875270286E-4
1.519877317E1,-2.103173174E-3,-3.115225816E-3,1.135981292E-4,3.760435323E-3
1.520882317E1,-7.377705770E-4,-8.954810910E-4,-7.708376506E-4,1.392976128E-3
1.521887217E1,1.656922745E-3,1.416550949E-3,2.127515618E-3,3.046035502E-3
1.522892117E1,-8.771405555E-5,6.607458927E-4,1.290795626E-4,6.789259339E-4
1.523897117E1,-4.432123387E-5,1.009397674E-3,-6.546739023E-4,1.203929381E-3
1.524902017E1,-2.600373118E-4,-2.699054079E-3,1.749008079E-4,2.717186526E-3
1.525906917E1,2.145296312E-4,-2.196570858E-3,-1.092073508E-3,2.462431937E-3
1.526911917E1,2.862244379E-3,-2.338211052E-4,1.731409924E-3,3.353340949E-3
1.527916817E1,2.689766698E-4,7.002446800E-4,7.493628655E-4,1.060299847E-3
1.528921717E1,7.046698011E-4,5.923868157E-4,1.629347680E-4,9.348953987E-4
1.529926717E1,2.911587071E-4,-3.788094036E-4,-8.198049618E-4,9.488678161E-4
1.530931617E1,1.445905305E-3,6.955098361E-4,8.707696688E-4,1.825545371E-3
1.531936517E1,-1.196664758E-3,-3.288667649E-4,2.632128540E-3,2.910027585E-3
1.532941517E1,2.749979903E-4,-8.548409678E-4,-7.319765282E-4,1.158519146E-3
1.533946417E1,-3.488967777E-4,1.024059951E-3,-9.056058479E-5,1.085646796E-3
1.534951317E1,8.833478787E-4,1.056284178E-3,7.784288609E-4,1.581768387E-3
1.535956317E1,-7.285000756E-4,-1.548893750E-3,-2.447086154E-3,2.986304548E-3
1.536961217E1,5.333055742E-4,-1.615206711E-3,3.332540509E-4,1.733310652E-3
1.537966117E1,6.775836227E-4,-2.011605073E-3,-1.920874696E-3,2.862766867E-3
1.538971117E1,1.236314885E-3,2.467553131E-4,-2.542684670E-4,1.286085197E-3
1.539976017E1,4.587460717E-4,-3.702575341E-4,-2.453718800E-3,2.523544046E-3
1.540980917E1,1.876080409E-3,-2.133976668E-4,2.372994320E-3,3.032543208E-3
1.541985917E1,-2.560690278E-3,1.445799135E-3,-8.599036373E-4,3.063805494E-3
1.542990817E1,-1.165460213E-3,-7.912749425E-5,1.553186448E-3,1.943436856E-3
1.543995717E1,-1.510471571E-3,1.701606903E-3,-7.555570337E-4,2.397468843E-3
1.545000717E1,-1.678783330E-3,1.758821309E-4,-1.111089019E-3,2.020833195E-3
1.546005617E1,2.483169665E-4,2.373325638E-3,-4.434355651E-4,2.427132259E-3
1.547010517E1,6.019847933E-4,-1.330066007E-3,1.188549446E-3,1.882580957E-3
1.548015517E1,-6.409855559E-4,3.706114367E-4,-1.781539875E-3,1.929274383E-3
1.549020417E1,5.076358211E-4,1.726160292E-3,7.812200347E-4,1.961537209E-3
1.550025317E1,1.391471364E-3,-2.680077450E-3,6.424135645E-4,3.087345605E-3
1.551030317E1,-2.953747462E-4,-6.848373450E-4,2.352429088E-3,2.467827191E-3
1.552035217E1,-2.195616951E-3,-7.063620724E-4,-2.312168246E-3,3.265854126E-3
1.553040117E1,1.043053227E-3,-3.239321522E-4,5.517952959E-4,1.223670758E-3
1.554045117E1,-2.109464258E-4,-5.393186584E-4,-5.768844858E-6,5.791340859E-4
1.555050017E1,-8.503713761E-4,-1.291128807E-3,1.294120215E-3,2.016157782E-3
1.556054917E1,-1.691657584E-3,-4.160068929E-4,-7.172924234E-4,1.883952106E-3
1.557059917E1,-1.071141101E-3,1.009583008E-3,-1.501687802E-5,1.472014475E-3
1.558064817E1,8.044792339E-4,2.230487298E-3,7.445149822E-5,2.372299191E-3
1.559069717E1,1.835388830E-3,-2.362400293E-3,2.598861931E-3,3.962785717E-3
1.560074717E1,-1.980597153E-5,6.419033743E-4,-1.071840758E-3,1.249509835E-3
1.561079617E1,4.563672119E-4,9.449711069E-4,7.811223622E-5,1.052303638E-3
1.562084517E1,3.574591246E-4,-1.129067503E-3,-1.624527387E-3,2.010387944E-3
1.563089517E1,-2.361594525E-4,-2.322163433E-3,-6.663220120E-4,2.427385285E-3
1.564094417E1,-1.129967510E-3,-2.952995244E-3,-2.565127332E-3,4.071472180E-3
1.565099317E1,-4.227490164E-3,9.658462368E-4,1.462104963E-3,4.576273917E-3
1.566104317E1,2.086580731E-3,-9.479699656E-5,4.546140553E-4,2.137634103E-3
1.567109217E1,8.964139852E-4,-9.621884674E-4,1.137448591E-3,1.738721938E-3
1.568114117E1,-1.544382249E-4,1.080482267E-3,-9.997418383E-4,1.480127305E-3
1.569119117E1,2.449068008E-3,-1.204510219E-3,4.221198033E-4,2.761695875E-3
1.570124017E1,6.726818974E-4,-1.894755755E-3,-1.214592950E-3,2.349007522E-3
1.571128917E1,-1.117761247E-3,-1.337622758E-3,6.458913558E-4,1.858978346E-3
1.572133917E1,2.273456485E-4,-1.093111932E-4,-1.156531507E-3,1.183722986E-3
1.573138817E1,-2.086095628E-5,-1.110926270E-3,3.177230712E-3,3.365915530E-3
1.574143717E1,-1.063564676E-3,3.082701005E-4,7.124564145E-4,1.316736275E-3
1.575148717E1,-1.443864079E-3,1.756764017E-3,-1.405821880E-3,2.673443182E-3
1.576153617E1,-5.524454755E-4,-7.799775340E-4,2.023148350E-3,2.237563453E-3
1.577158517E1,-6.661624066E-4,2.829404548E-3,3.924949560E-4,2.933147582E-3
1.578163517E1,-1.634916116E-4,1.735828351E-3,-1.266860985E-3,2.155171995E-3
1.579168417E1,-2.329440555E-3,-1.438126899E-3,-1.892703818E-3,3.328187197E-3
1.580173317E1,-5.360707291E-4,1.272541936E-3,-7.277682307E-4,1.560891221E-3
1.581178317E1,-4.553769249E-4,1.271210145E-3,-1.421788009E-3,1.960822409E-3
1.582183217E1,1.026374986E-3,2.172017936E-3,-2.174587571E-4,2.412135120E-3
1.583188117E1,6.423471496E-4,-1.390730031E-4,5.785600515E-4,8.756043021E-4
1.584193017E1,3.850237699E-4,-1.302706078E-4,-4.944060929E-4,6.400399358E-4
1.585198017E1,1.497692429E-3,-8.792662993E-5,5.431614118E-4,1.595568244E-3
1.586202917E1,-1.263381855E-4,-1.326973550E-3,1.630169805E-3,2.105771529E-3
1.587207817E1,-2.286161762E-3,1.151364297E-3,2.691972069E-3,3.714685581E-3
1.588212817E1,-3.331789514E-3,6.341021508E-4,1.113423496E-3,3.569680488E-3
1.589217717E1,-3.977850138E-4,-1.118790824E-3,1.064687618E-3,1.594830884E-3
1.590222617E1,1.847554959E-4,-1.363470219E-4,-1.230436959E-3,1.251678958E-3
1.591227617E1,-2.142847283E-3,-1.310207881E-4,-3.486134345E-3,4.094153587E-3
1.592232517E1,-9.305033018E-5,1.547406428E-4,-1.092394930E-3,1.107217103E-3
1.593237417E1,9.203937952E-5,-1.427975949E-3,1.835217932E-3,2.327146626E-3
1.594242417E1,1.417574240E-3,1.996271312E-4,6.041279994E-4,1.553814132E-3
